Time,AccX,AccY,AccZ,MagX,MagY,MagZ,Heading,Gesture
12966,128,784,-656,-20936,-52545,25220,125,
13002,112,784,-656,-21336,-53045,23820,127,
13038,112,800,-640,-21336,-53045,23820,125,
13074,128,784,-656,-21436,-53345,23120,128,
13110,112,784,-656,-21436,-53345,23120,128,
13146,112,784,-656,-21436,-53345,23120,128,
13182,112,784,-656,-21436,-52945,23620,127,
13224,112,784,-656,-21436,-52945,23620,127,
13260,112,800,-656,-21436,-52945,23620,126,
13296,112,784,-656,-21336,-52845,22920,128,
13332,112,784,-656,-21336,-52845,22920,128,
13368,128,800,-640,-21636,-52145,23920,124,
13440,128,784,-656,-21636,-52145,23920,126,
13476,128,784,-656,-21236,-52945,23620,127,
13548,112,800,-656,-21236,-52945,23620,126,
13584,112,800,-656,-21236,-52845,22920,127,
13620,112,800,-656,-21236,-52845,22920,127,
13656,112,800,-656,-21436,-52545,23020,127,
13692,112,800,-656,-21436,-52545,23020,127,
13728,112,800,-656,-21436,-52545,23020,127,
13764,112,800,-656,-21136,-52745,23420,127,
13800,112,800,-640,-21136,-52745,23420,126,
13836,128,800,-640,-21136,-52745,23420,126,
13872,112,800,-656,-21236,-53445,24620,126,
13908,128,800,-656,-21236,-53445,24620,126,
13944,112,800,-656,-21636,-53245,22320,128,
13986,112,800,-656,-21636,-53245,22320,128,
14058,112,800,-656,-20936,-52845,23320,127,
14094,112,784,-640,-20936,-52845,23320,127,
14130,128,784,-656,-20936,-52845,23320,128,
14166,128,784,-656,-21236,-53245,23420,128,
14202,112,800,-656,-21236,-53245,23420,127,
14238,112,800,-656,-21436,-52945,23420,126,
14280,112,800,-656,-21436,-52945,23420,126,
14316,112,800,-656,-21436,-52945,23420,126,
14352,128,784,-640,-21536,-53145,22720,128,
14388,128,784,-656,-21536,-53145,22720,129,
14424,112,784,-656,-21536,-53145,22720,128,
14460,128,784,-656,-21836,-52245,24520,125,
14496,112,800,-640,-21836,-52245,24520,123,
14568,112,800,-656,-21736,-52645,23320,126,
14604,112,800,-656,-21736,-52645,23320,126,
14640,112,800,-656,-21336,-52945,22620,128,
14676,112,800,-656,-21336,-52945,22620,128,
14712,128,784,-656,-21336,-52945,22620,129,
14748,112,800,-656,-21636,-52745,24520,125,
14790,112,784,-640,-21636,-52745,24520,125,
14826,128,784,-656,-21036,-52845,23720,127,
14862,128,784,-640,-21036,-52845,23720,127,
14898,112,784,-640,-21036,-52845,23720,126,
14934,112,800,-656,-21536,-53045,23320,127,
14970,128,784,-656,-21536,-53045,23320,128,
15006,128,800,-656,-21736,-52745,24020,126,
15048,112,800,-640,-21736,-52745,24020,124,
15084,128,800,-656,-21736,-52745,24020,126,
15120,112,784,-656,-21736,-53045,24320,126,
15156,112,784,-640,-21736,-53045,24320,125,
15192,112,784,-640,-21736,-53045,24320,125,
15228,128,784,-656,-21336,-53045,24120,127,
15264,112,800,-656,-21336,-53045,24120,126,
15300,128,784,-640,-21636,-53245,22620,128,
15336,112,800,-640,-21636,-53245,22620,127,
15372,128,784,-656,-21636,-53245,22620,129,
15408,112,800,-656,-21236,-52945,22620,128,
15444,112,784,-640,-21236,-52945,22620,128,
15480,128,784,-656,-21236,-52945,22620,129,
15516,112,800,-656,-21136,-53145,22920,128,
15594,128,800,-640,-21236,-53345,24320,125,
15630,112,800,-656,-21236,-53345,24320,126,
15666,112,800,-656,-21236,-53345,24320,126,
15702,112,784,-656,-21336,-53445,23120,128,
15738,128,800,-656,-21336,-53445,23120,128,
15774,112,784,-656,-21336,-53445,23120,128,
15810,128,800,-640,-21136,-53445,22520,128,
15846,112,784,-656,-21136,-53445,22520,129,
15882,112,784,-656,-20736,-52845,24420,127,
15918,128,800,-656,-20736,-52845,24420,126,
15954,128,784,-656,-20736,-52845,24420,127,
15990,128,800,-640,-21236,-53345,24620,125,
16026,128,784,-656,-21236,-53345,24620,127,
16062,112,784,-656,-21236,-53345,24620,126,
16098,128,800,-656,-21336,-53245,22020,129,
16134,112,800,-656,-21336,-53245,22020,129,
16206,128,784,-656,-21636,-53545,23720,128,
16242,128,800,-656,-21636,-53545,23720,127,
16278,112,784,-656,-21536,-53945,22820,129,
16314,128,800,-656,-21536,-53945,22820,128,
16350,128,784,-656,-21536,-53945,22820,129,
16392,112,784,-656,-21336,-53545,23620,128,
16428,128,800,-640,-21336,-53545,23620,126,
16464,128,784,-656,-21036,-53245,23420,128,
16500,112,800,-656,-21036,-53245,23420,127,
16536,128,800,-656,-21036,-53245,23420,127,
16572,112,784,-656,-21636,-53245,23920,127,
16608,112,800,-656,-21636,-53245,23920,126,
16644,128,784,-640,-21636,-53245,23920,126,
16824,112,752,-688,-21636,-52645,22620,131,
16860,112,848,-656,-21136,-52845,22220,126,
16896,176,656,-640,-21136,-52845,22220,135,
16932,96,912,-592,-21136,-52845,22220,118,
16968,96,848,-656,-21436,-53345,23320,124,
17004,112,720,-672,-21436,-53345,23320,132,
17040,144,864,-608,-21336,-53345,22920,123,
17076,128,736,-672,-21336,-53345,22920,132,
17112,96,848,-624,-21336,-53345,22920,123,
17148,144,752,-672,-21036,-53145,23620,130,
17190,96,816,-640,-21036,-53145,23620,125,
17226,128,768,-672,-21036,-53145,23620,129,
17262,144,768,-656,-21436,-53145,23920,128,
17334,128,768,-656,-21236,-53045,23420,129,
17370,128,816,-640,-21236,-53045,23420,125,
17406,112,784,-656,-21236,-53045,23420,128,
17586,96,784,-656,-21236,-53145,24020,127,
17694,112,800,-640,-20636,-52645,24120,125,
17730,128,784,-656,-20836,-53245,22420,130,
17766,112,800,-656,-20836,-53245,22420,129,
17802,128,784,-640,-20836,-53245,22420,129,
17838,112,800,-656,-21136,-53145,22520,128,
18024,128,800,-640,-20736,-53245,23720,126,
18060,112,784,-656,-20736,-53245,23720,128,
18096,128,800,-640,-20736,-53245,23720,126,
18132,112,784,-656,-20536,-53045,24320,127,
18168,128,800,-656,-20536,-53045,24320,127,
18204,144,800,-672,-20636,-52745,23720,128,
18240,128,816,-672,-20636,-52745,23720,127,
18276,240,736,-1040,-20636,-52745,23720,142,
18312,192,928,-656,-22836,-53145,23120,123,
18348,112,736,-672,-22836,-53145,23120,130,
18384,0,768,-656,-22836,-53145,23120,126,
18420,144,816,-640,-23236,-53345,22620,126,
18456,176,800,-592,-23236,-53345,22620,125,
18492,48,816,-640,-22136,-53245,21820,125,
18564,160,784,-640,-22136,-53245,21820,129,
18600,112,800,-640,-21336,-53445,22920,127,
18636,112,784,-656,-21336,-53445,22920,128,
18672,144,816,-640,-21336,-53445,22920,127,
18708,112,800,-656,-21436,-53545,22220,129,
18744,128,800,-640,-21436,-53545,22220,128,
18786,112,800,-640,-21936,-53245,22320,127,
18822,112,800,-640,-21936,-53245,22320,127,
18858,128,800,-640,-21936,-53245,22320,127,
18894,128,784,-656,-21136,-53345,23520,128,
18930,112,800,-640,-21136,-53345,23520,126,
18966,128,800,-640,-21136,-53345,23520,126,
19002,112,800,-656,-21836,-53045,24720,125,
19044,128,800,-640,-21836,-53045,24720,124,
19080,112,800,-640,-21736,-53745,25020,124,
19116,112,800,-656,-21736,-53745,25020,125,
19152,128,800,-640,-21736,-53745,25020,124,
19188,112,800,-640,-21736,-53645,23220,126,
19224,128,800,-640,-21736,-53645,23220,127,
19260,128,800,-640,-21736,-53645,23220,127,
19296,128,800,-640,-21536,-53545,22120,128,
19332,128,784,-656,-21536,-53545,22120,130,
19368,128,800,-640,-21836,-53345,22720,127,
19404,112,800,-640,-21836,-53345,22720,127,
19440,128,800,-640,-21836,-53345,22720,127,
19476,128,800,-640,-21736,-53945,23220,127,
19512,128,800,-640,-21736,-53945,23220,127,
19548,112,800,-640,-21836,-53945,22820,127,
19590,112,800,-640,-21836,-53945,22820,127,
19626,128,800,-640,-21836,-53945,22820,127,
19662,112,800,-640,-21636,-53945,23820,126,
19698,128,800,-656,-21636,-53945,23820,127,
19734,128,800,-656,-21636,-53945,23820,127,
19770,112,800,-640,-21736,-53445,24220,125,
19812,128,800,-640,-21736,-53445,24220,125,
19848,128,800,-640,-21236,-53245,23320,127,
19884,128,800,-656,-21236,-53245,23320,127,
19920,112,800,-640,-21236,-53245,23320,126,
19992,128,800,-640,-21736,-53445,23620,126,
20028,112,800,-640,-21736,-53445,23620,126,
20064,128,800,-640,-21436,-52945,22320,127,
20100,112,800,-640,-21436,-52945,22320,127,
20136,128,800,-640,-21236,-53845,22720,128,
20172,128,800,-640,-21236,-53845,22720,128,
20208,128,800,-656,-21236,-53845,22720,129,
20244,128,800,-656,-21336,-54045,24520,126,
20280,128,800,-640,-21336,-54045,24520,126,
20316,128,800,-640,-21336,-54045,24520,126,
20352,112,800,-640,-21136,-53645,23220,128,
20394,128,800,-640,-21136,-53645,23220,127,
20430,112,800,-656,-21136,-53645,22420,129,
20466,128,800,-640,-21136,-53645,22420,128,
20502,128,800,-656,-21136,-53645,22420,129,
20538,128,800,-640,-22036,-53845,23220,127,
20574,128,784,-640,-22036,-53845,23220,127,
20610,128,800,-656,-22036,-53845,23220,127,
20646,128,800,-640,-21536,-54045,25320,124,
20688,128,800,-640,-21536,-54045,25320,124,
20724,112,800,-640,-22036,-53645,23320,126,
20760,128,800,-656,-22036,-53645,23320,127,
20796,112,800,-640,-22036,-53645,23320,126,
20832,128,800,-640,-21236,-53745,24220,126,
20868,128,800,-640,-21236,-53745,24220,126,
20904,128,800,-640,-21236,-53745,24220,126,
20940,128,800,-656,-21136,-53245,23620,127,
20976,128,800,-640,-21136,-53245,23620,126,
21012,112,800,-640,-21536,-53345,23620,126,
21048,128,800,-640,-21536,-53345,23620,126,
21084,128,800,-640,-21536,-53345,23620,126,
21120,128,800,-640,-21136,-53445,24020,126,
21156,128,800,-640,-21136,-53445,24020,126,
21198,128,800,-640,-21136,-53645,23920,126,
21234,128,800,-640,-21136,-53645,23920,126,
21270,112,800,-656,-21136,-53645,23920,127,
21342,128,800,-640,-21636,-53645,24420,125,
21378,128,800,-640,-21636,-53645,24420,125,
21414,128,800,-640,-21736,-53845,24020,126,
21456,128,800,-640,-21736,-53845,24020,126,
21492,128,800,-640,-21736,-53945,21820,129,
21534,128,800,-640,-21736,-53945,21820,129,
21570,128,800,-640,-21736,-53945,21820,129,
21606,128,800,-640,-21536,-53645,24620,125,
21642,128,800,-656,-21536,-53645,24620,126,
21678,112,800,-640,-21536,-53645,24620,125,
21714,112,800,-640,-21636,-53345,24620,124,
21750,128,800,-640,-21636,-53345,24620,125,
21786,128,800,-640,-21336,-53545,24020,126,
21822,128,800,-640,-21336,-53545,24020,126,
21858,128,800,-640,-21336,-53545,24020,126,
21894,128,800,-640,-21436,-53745,24120,126,
21930,128,800,-640,-21436,-53745,24120,126,
21966,112,800,-640,-21436,-53745,24120,125,
22044,128,800,-640,-21736,-53645,25020,124,
22080,112,800,-640,-21336,-53545,23620,126,
22116,128,800,-640,-21336,-53545,23620,126,
22152,128,784,-640,-21336,-53545,23620,127,
22188,128,800,-640,-21236,-53745,23920,126,
22230,128,800,-656,-21236,-53745,23920,127,
22266,128,800,-640,-21536,-53845,24120,126,
22308,128,800,-640,-21536,-53845,24120,126,
22344,128,800,-640,-21536,-53845,24120,126,
22380,128,800,-640,-21336,-53145,23520,126,
22452,112,800,-640,-21336,-53145,23520,126,
22488,128,800,-640,-21936,-53445,23820,125,
22524,128,800,-640,-21936,-53445,23820,125,
22560,128,800,-640,-21536,-53645,24120,126,
22596,112,800,-640,-21536,-53645,24120,125,
22632,128,800,-640,-21536,-53645,24120,126,
22668,112,800,-640,-21636,-53145,24220,125,
22704,128,800,-640,-21636,-53145,24220,125,
22740,112,800,-656,-21636,-53145,24220,125,
22776,128,800,-640,-21536,-53745,23120,127,
22818,128,800,-640,-21536,-53745,23120,127,
22854,128,800,-640,-21436,-53845,23720,126,
22926,128,800,-640,-21436,-53845,23720,126,
22962,112,800,-640,-21736,-53645,23720,126,
23034,128,800,-656,-21736,-53645,23720,127,
23070,112,800,-640,-21436,-53245,24820,124,
23112,128,800,-640,-21436,-53245,24820,124,
23148,112,800,-640,-21336,-53745,24120,126,
23184,128,800,-656,-21336,-53745,24120,127,
23220,112,800,-640,-21336,-53745,24120,126,
23256,112,800,-640,-21036,-53745,21920,129,
23292,128,800,-656,-21036,-53745,21920,130,
23328,128,800,-640,-21536,-54045,24120,126,
23364,128,800,-640,-21536,-54045,24120,126,
23400,128,800,-640,-21536,-54045,24120,126,
23436,112,800,-640,-21136,-53745,23520,126,
23472,128,800,-640,-21136,-53745,23520,127,
23508,128,800,-640,-21136,-53745,23520,127,
23544,128,800,-640,-21436,-53145,23120,127,
23580,112,800,-640,-21436,-53145,23120,126,
23622,128,800,-656,-21836,-53745,23920,127,
23658,128,800,-656,-21836,-53745,23920,127,
23694,128,800,-640,-21836,-53745,23920,126,
23730,128,800,-640,-21836,-53745,22820,127,
23766,128,800,-656,-21836,-53745,22820,128,
23802,128,800,-640,-21836,-53745,22820,127,
23838,112,800,-640,-21736,-53445,23920,125,
23874,128,800,-640,-21736,-53445,23920,126,
23910,128,800,-640,-21536,-53645,22720,127,
23988,128,800,-640,-21536,-53645,22720,127,
24024,128,800,-640,-21836,-53645,23720,126,
24060,128,800,-640,-21836,-53645,23720,126,
24096,128,800,-656,-21836,-53645,23720,127,
24132,128,800,-640,-22236,-53645,22920,127,
24168,128,800,-640,-22236,-53645,22920,127,
24204,128,800,-640,-21936,-53945,22920,127,
24240,128,800,-640,-21936,-53945,22920,127,
24276,112,800,-640,-21936,-53945,22920,127,
24312,128,800,-656,-21536,-53545,22420,129,
24348,128,800,-640,-21536,-53545,22420,128,
24384,128,800,-640,-21536,-53545,22420,128,
24426,128,800,-640,-21836,-53845,22520,128,
24462,128,800,-640,-21836,-53845,22520,128,
24498,112,800,-640,-22436,-53745,23220,126,
24534,112,800,-640,-22436,-53745,23220,126,
24606,112,800,-640,-22136,-54245,22920,127,
24642,128,800,-656,-22136,-54245,22920,128,
24678,128,800,-640,-22136,-54245,22920,127,
24714,128,800,-640,-21736,-53445,23320,126,
24756,128,800,-640,-21736,-53445,23320,126,
24792,128,800,-640,-21536,-53945,22420,128,
24828,128,800,-640,-21536,-53945,22420,128,
24864,128,800,-640,-21536,-53945,22420,128,
24900,128,800,-656,-21736,-53645,23720,127,
24936,128,800,-640,-21736,-53645,23720,126,
24972,128,800,-640,-21636,-53945,22620,128,
25008,128,800,-640,-21636,-53945,22620,128,
25044,112,800,-656,-21636,-53945,22620,128,
25080,112,800,-640,-21736,-53745,22820,127,
25116,128,784,-672,-21736,-53745,22820,130,
25152,128,800,-640,-21736,-53745,22820,127,
25188,128,784,-656,-21736,-53945,23520,128,
25230,128,800,-640,-21736,-53945,23520,126,
25266,128,800,-656,-22036,-53745,23120,127,
25302,128,784,-640,-22036,-53745,23120,127,
25338,128,800,-640,-22036,-53745,23120,127,
25374,112,800,-640,-21836,-53945,22120,128,
25410,128,800,-640,-21836,-53945,22120,128,
25446,128,800,-640,-21836,-53945,22120,128,
25482,128,800,-656,-22036,-53845,24820,125,
25524,144,800,-640,-22036,-53845,24820,125,
25560,128,800,-640,-22436,-53445,23320,126,
25596,144,832,-688,-22436,-53445,23320,127,
25632,128,800,-640,-22436,-53445,23320,126,
25668,112,800,-640,-21836,-53145,22920,126,
25704,112,784,-640,-21836,-53145,22920,127,
25740,128,800,-640,-21836,-53145,22920,126,
25776,128,800,-640,-21136,-52845,22320,128,
25812,128,800,-656,-21136,-52845,22320,128,
25848,128,784,-656,-21436,-53445,23920,127,
25884,128,800,-656,-21436,-53445,23920,127,
25920,128,800,-624,-21436,-53445,23920,125,
25956,128,800,-640,-21436,-53645,23220,127,
25992,128,800,-640,-21436,-53645,23220,127,
26034,112,784,-656,-21436,-53645,23220,128,
26070,128,784,-656,-21536,-53545,23020,128,
26106,128,784,-608,-21536,-53545,23020,126,
26142,144,800,-656,-22236,-53345,22920,127,
26178,96,784,-624,-22236,-53345,22920,125,
26214,128,800,-656,-22236,-53345,22920,127,
26250,128,800,-624,-21636,-52745,24420,123,
26292,128,800,-656,-21636,-52745,24420,125,
26328,128,800,-640,-21536,-53645,23820,126,
26370,128,800,-640,-21536,-53645,23820,126,
26406,112,800,-624,-21536,-53645,23820,125,
26442,112,784,-656,-21336,-53545,23120,128,
26478,128,800,-640,-21336,-53545,23120,127,
26514,128,800,-656,-21336,-53545,23120,128,
26550,128,784,-656,-21636,-53545,23620,128,
26586,112,800,-656,-21636,-53545,23620,127,
26622,128,800,-640,-21936,-53845,22620,127,
26658,128,800,-656,-21936,-53845,22620,128,
26694,112,800,-640,-21936,-53845,22620,127,
26730,112,800,-624,-21436,-53745,23720,125,
26766,128,800,-640,-21436,-53745,23720,126,
26802,112,784,-624,-21436,-53745,23720,126,
26844,128,800,-640,-22136,-53245,23220,126,
26880,112,784,-640,-22136,-53245,23220,126,
26916,128,816,-608,-21636,-52945,23020,124,
26952,128,800,-640,-21636,-52945,23020,126,
26988,128,800,-640,-21636,-52945,23020,126,
27024,128,800,-656,-22036,-53145,23220,127,
27066,112,800,-640,-22036,-53145,23220,126,
27102,112,784,-672,-21536,-52945,22020,130,
27144,128,800,-656,-21536,-52945,22020,128,
27180,144,800,-624,-21536,-52945,22020,127,
27216,128,800,-640,-21836,-53845,23520,126,
27252,112,800,-624,-21836,-53845,23520,125,
27288,128,800,-656,-21836,-53845,23520,127,
27324,192,816,-624,-21536,-53545,21920,129,
27360,128,800,-672,-21536,-53545,21920,130,
27396,112,800,-640,-22036,-53745,23420,126,
27432,112,800,-656,-22036,-53745,23420,127,
27468,128,800,-656,-22036,-53745,23420,127,
27504,112,800,-640,-21736,-53745,23020,127,
27576,112,784,-688,-21736,-53745,23020,130,
27612,112,800,-656,-21936,-53245,22220,128,
27654,112,800,-656,-21936,-53245,22220,128,
27690,112,800,-640,-22036,-53845,23120,126,
27726,128,800,-640,-22036,-53845,23120,127,
27762,112,784,-624,-22036,-53845,23120,126,
27798,112,784,-656,-21336,-53745,24620,127,
27834,112,816,-608,-21336,-53745,24620,122,
27870,128,800,-656,-21336,-53745,24620,126,
27906,128,800,-608,-21636,-53245,24320,123,
27942,128,800,-640,-21636,-53245,24320,125,
27978,112,784,-736,-21936,-53245,24020,130,
28014,128,800,-640,-21936,-53245,24020,125,
28050,112,816,-560,-21936,-53245,24020,119,
28086,112,816,-672,-21636,-53145,22320,128,
28122,112,784,-656,-21636,-53145,22320,129,
28158,128,800,-640,-21636,-53145,22320,127,
28194,112,800,-624,-21836,-53145,23920,124,
28230,112,784,-672,-21836,-53145,23920,127,
28266,112,784,-656,-21836,-53145,23520,127,
28302,112,800,-624,-21836,-53145,23520,124,
28338,144,784,-688,-21836,-53145,23520,129,
28374,128,800,-640,-22036,-53245,22820,127,
28410,128,800,-608,-22036,-53245,22820,125,
28452,96,784,-672,-22036,-53245,22820,128,
28488,144,784,-672,-21636,-53845,23620,129,
28524,112,800,-640,-21636,-53845,23620,126,
28560,96,800,-624,-21936,-53245,23120,125,
28596,112,784,-672,-21936,-53245,23120,128,
28632,112,784,-640,-21936,-53245,23120,127,
28668,160,816,-592,-21736,-53445,23220,124,
28710,144,800,-640,-21736,-53445,23220,127,
28746,64,800,-640,-21736,-53445,24220,124,
28788,112,800,-640,-21736,-53445,24220,125,
28824,96,784,-656,-21736,-53445,24220,126,
28860,144,800,-640,-21236,-53645,22720,128,
28896,160,816,-624,-21236,-53645,22720,127,
28932,128,800,-656,-21236,-53645,22720,129,
29004,144,800,-656,-21336,-53245,24420,126,
29040,128,800,-560,-21836,-53945,23720,122,
29112,128,784,-656,-21836,-53945,23720,128,
29148,96,800,-624,-21936,-53345,23420,124,
29184,96,784,-672,-21936,-53345,23420,128,
29220,112,784,-656,-21936,-53345,23420,127,
29262,128,800,-592,-21836,-53445,23120,124,
29298,128,800,-624,-21836,-53445,23120,126,
29334,128,800,-656,-21836,-54045,24020,127,
29370,144,800,-672,-21836,-54045,24020,128,
29406,144,800,-640,-21836,-54045,24020,126,
29442,128,800,-672,-21336,-53445,23720,128,
29484,112,784,-672,-21336,-53445,23720,128,
29520,112,816,-640,-21536,-53945,22920,126,
29562,96,784,-656,-21536,-53945,22920,128,
29598,144,832,-640,-21536,-53945,22920,126,
29634,128,800,-624,-21636,-54045,24220,125,
29670,128,800,-640,-21636,-54045,24220,126,
29706,128,800,-608,-21636,-54045,24220,124,
29742,112,800,-640,-21636,-54045,23120,127,
29778,96,768,-688,-21636,-54045,23120,131,
29814,112,800,-656,-21636,-53445,23120,127,
29850,128,800,-592,-21636,-53445,23120,124,
29886,144,800,-656,-21636,-53445,23120,128,
29922,128,800,-640,-21736,-53245,21920,128,
29958,112,816,-640,-21736,-53245,21920,127,
29994,128,800,-656,-21736,-53245,21920,129,
30030,128,816,-624,-21536,-53745,23920,124,
30072,96,816,-576,-21536,-53745,23920,120,
30108,144,800,-704,-21536,-54145,23820,130,
30144,96,800,-624,-21536,-54145,23820,125,
30180,144,800,-672,-21536,-54145,23820,128,
30216,80,768,-608,-21636,-53745,23520,125,
30252,128,800,-720,-21636,-53745,23520,130,
30288,112,784,-672,-21636,-53745,23520,129,
30324,144,800,-704,-21436,-54145,23420,130,
30366,144,800,-624,-21436,-54145,23420,127,
30402,80,784,-624,-21736,-53845,22920,126,
30438,128,800,-656,-21736,-53845,22920,128,
30474,128,768,-528,-21736,-53845,22920,122,
30510,96,800,-656,-22036,-53445,24220,125,
30546,48,800,-608,-22036,-53445,24220,121,
30582,112,784,-560,-22036,-53845,23020,122,
30618,160,784,-656,-22036,-53845,23020,129,
30654,96,784,-704,-22036,-53845,23020,130,
30690,128,784,-784,-21936,-53945,22920,134,
30726,160,832,-656,-21936,-53945,22920,127,
30762,176,816,-592,-21936,-53945,22920,126,
30798,128,784,-656,-21736,-53745,22320,129,
30834,128,784,-624,-21736,-53745,22320,128,
30876,80,832,-624,-21736,-54345,23320,123,
30912,96,784,-688,-21736,-54345,23320,130,
30948,144,784,-656,-21736,-54345,23320,129,
31020,80,816,-640,-21436,-53945,23420,125,
31056,128,800,-688,-21436,-53945,23420,129,
31092,144,848,-496,-21436,-53845,23020,117,
31134,112,784,-640,-21436,-53845,23020,128,
31170,176,832,-624,-22336,-53745,24620,124,
31206,112,816,-624,-22336,-53745,24620,122,
31242,176,768,-640,-22336,-53745,24620,127,
31278,128,816,-896,-21836,-53945,23020,137,
31314,160,816,-624,-21836,-53945,23020,126,
31350,64,784,-592,-21836,-53945,23020,123,
31386,192,768,-736,-21936,-53945,23320,133,
31422,64,784,-800,-21936,-53945,23320,134,
31458,112,800,-656,-22036,-53945,23720,126,
31494,128,768,-816,-22036,-53945,23720,135,
31566,144,816,-544,-21636,-53945,23620,121,
31602,128,800,-608,-21636,-53945,23620,125,
31638,128,784,-624,-21636,-53945,23620,126,
31680,144,864,-512,-21636,-54245,23520,117,
31716,112,768,-720,-21636,-54245,23520,132,
31752,96,768,-688,-21836,-54145,24020,129,
31788,160,816,-576,-21836,-54145,24020,123,
31824,112,832,-528,-21836,-54145,24020,117,
31860,80,784,-640,-21336,-54145,23320,127,
31902,96,816,-672,-21336,-54145,23320,128,
31974,144,816,-608,-22136,-54345,22720,126,
32010,144,768,-672,-22136,-54345,22720,131,
32046,112,784,-672,-21536,-54245,24320,128,
32082,96,800,-576,-21536,-54245,24320,121,
32118,96,768,-656,-21536,-54245,24320,128,
32154,80,752,-720,-22036,-54345,23720,132,
32190,160,816,-464,-22036,-54345,23720,117,
32226,144,768,-704,-22036,-54345,23720,131,
32262,128,800,-592,-21836,-54045,22720,125,
32298,112,800,-624,-21836,-54045,22720,126,
32334,96,800,-624,-21836,-53945,23020,125,
32370,128,784,-672,-21836,-53945,23020,129,
32406,96,800,-656,-21836,-53945,23020,127,
32442,128,800,-688,-21436,-54545,23620,130,
32484,144,784,-704,-21436,-54545,23620,131,
32520,128,800,-752,-21536,-53945,23320,132,
32592,112,816,-656,-21536,-53945,23320,127,
32628,144,784,-656,-21336,-54045,22920,130,
32664,160,800,-624,-21336,-54045,22920,128,
32700,160,832,-688,-21336,-54045,22920,129,
32736,128,800,-608,-21336,-54245,23120,126,
32772,144,800,-656,-21336,-54245,23120,129,
32808,96,784,-688,-21736,-54645,23420,130,
32844,128,768,-688,-21736,-54645,23420,131,
32880,112,832,-528,-21736,-54645,23420,118,
32916,128,784,-672,-21436,-53945,23820,129,
32952,128,800,-592,-21436,-53945,23820,124,
32988,128,816,-624,-21436,-53945,23820,125,
33024,128,784,-608,-21736,-53945,23220,126,
33060,96,800,-624,-21736,-53945,23220,125,
33096,144,768,-768,-21736,-53945,23220,134,
33132,128,800,-496,-21836,-54145,22120,120,
33204,112,800,-608,-21836,-53845,25320,122,
33240,176,848,-528,-21836,-53845,25320,117,
33282,160,816,-688,-21836,-53845,25320,126,
33318,112,784,-656,-21736,-54345,23320,128,
33354,112,800,-656,-21736,-54345,23320,128,
33390,160,784,-672,-21936,-54445,23420,130,
33426,96,800,-640,-21936,-54445,23420,126,
33462,96,784,-624,-21936,-54445,23420,126,
33498,112,816,-688,-22036,-54945,24820,127,
33540,128,800,-672,-22036,-54945,24820,127,
33612,112,832,-800,-22036,-54545,25020,131,
33648,128,784,-672,-22036,-54545,25020,127,
33684,128,800,-592,-21236,-54245,24420,123,
33720,128,816,-608,-21236,-54245,24420,123,
33756,192,832,-592,-21236,-54245,24420,124,
33792,32,768,-656,-22036,-54045,23620,127,
33828,128,800,-832,-22036,-54045,23620,135,
33864,128,832,-576,-22036,-54045,23620,121,
33900,112,784,-624,-21736,-54145,23820,126,
33936,160,816,-640,-21736,-54145,23820,126,
33972,160,784,-704,-21736,-53945,24320,130,
34008,128,816,-624,-21736,-53945,24320,124,
34044,128,784,-576,-21736,-53945,24320,121,
34086,64,848,-736,-21536,-54145,23920,128,
34122,128,768,-640,-21536,-54145,23920,128,
34158,176,784,-608,-21536,-54145,23920,127,
34230,176,768,-704,-21836,-54445,23720,132,
34266,144,784,-672,-21736,-54445,24220,129,
34308,112,784,-576,-21736,-54445,24220,123,
34344,96,800,-720,-21736,-54445,24220,130,
34380,48,784,-608,-21336,-55045,24220,124,
34416,128,816,-624,-21336,-55045,24220,125,
34452,208,832,-592,-21436,-54645,23620,126,
34488,144,800,-576,-21436,-54645,23620,124,
34524,160,816,-608,-21436,-54645,23620,126,
34560,160,736,-736,-21536,-54345,23520,134,
34596,192,864,-544,-21536,-54345,23520,122,
34632,128,800,-752,-21536,-54345,23520,132,
34668,144,784,-512,-21736,-54445,24520,119,
34704,128,768,-736,-21736,-54445,24520,132,
34740,112,784,-688,-21736,-54445,24520,129,
34776,128,768,-576,-22136,-54545,24120,124,
34812,128,800,-592,-22136,-54545,24120,123,
34848,112,816,-656,-22136,-54745,24720,125,
34890,64,784,-720,-22136,-54745,24720,130,
34926,112,800,-640,-22136,-54745,24720,125,
34962,160,800,-640,-21936,-54445,23120,128,
34998,160,752,-736,-21936,-54445,23120,134,
35034,112,800,-640,-21936,-54345,24220,125,
35070,128,816,-704,-21936,-54345,24220,128,
35106,80,800,-752,-21936,-54345,24220,131,
35142,144,816,-640,-21836,-54345,24420,125,
35178,144,768,-672,-21836,-54345,24420,129,
35214,144,816,-576,-21836,-54345,24420,122,
35250,96,816,-640,-21736,-54145,23520,125,
35286,144,800,-576,-21736,-54145,23520,124,
35358,128,768,-736,-21236,-54745,24820,132,
35394,128,832,-720,-21236,-54745,24820,129,
35430,128,848,-576,-22036,-54745,24020,120,
35466,176,816,-672,-22036,-54745,24020,128,
35502,64,848,-576,-22036,-54745,24020,118,
35538,80,816,-816,-21736,-54745,24020,134,
35574,80,800,-752,-21736,-54745,24020,132,
35610,96,768,-624,-21736,-54745,24020,127,
35646,144,816,-640,-21536,-54945,23620,127,
35688,128,848,-624,-21536,-54945,23620,124,
35724,192,832,-464,-21536,-54545,23920,119,
35760,96,768,-752,-21536,-54545,23920,133,
35796,144,768,-704,-21536,-54545,23920,131,
35832,80,784,-608,-21736,-55145,24020,125,
35868,144,848,-576,-21736,-55145,24020,122,
35904,192,816,-624,-22036,-54745,24120,127,
35940,80,800,-576,-22036,-54745,24120,121,
35976,128,784,-576,-22036,-54745,24120,123,
36012,176,832,-576,-22036,-55045,24220,123,
36048,192,816,-624,-22036,-55045,24220,127,
36084,160,832,-576,-22036,-55045,24220,122,
36120,96,848,-672,-21536,-54345,23820,125,
36156,96,752,-672,-21536,-54345,23820,130,
36192,96,736,-816,-21536,-54345,23820,137,
36228,64,816,-704,-21636,-54445,22220,130,
36264,160,800,-672,-21636,-54445,22220,131,
36300,144,816,-672,-21836,-53945,22720,129,
36336,80,736,-624,-21836,-53945,22720,129,
36372,128,832,-640,-21836,-53945,22720,126,
36408,160,816,-592,-21136,-54945,23820,125,
36444,64,784,-656,-21136,-54945,23820,128,
36486,112,768,-656,-21336,-54245,23420,129,
36522,160,768,-752,-21336,-54245,23420,134,
36558,64,816,-624,-21336,-54245,23420,124,
36594,176,800,-800,-21536,-54645,23120,135,
36630,144,848,-624,-21536,-54645,23120,125,
36666,48,784,-640,-21536,-54645,23120,127,
36702,128,768,-656,-21736,-54445,24120,129,
36738,96,784,-832,-21736,-54445,24120,135,
36774,64,816,-672,-21836,-54545,23620,127,
36810,160,784,-784,-21836,-54545,23620,134,
36846,80,784,-752,-21836,-54545,23620,133,
36882,176,784,-688,-21736,-54845,23020,132,
36918,112,864,-384,-21736,-54845,23020,107,
36954,80,752,-592,-21736,-54845,23020,126,
36990,80,784,-624,-21736,-54345,23920,125,
37026,192,832,-560,-21736,-54345,23920,123,
37098,128,784,-688,-21736,-54545,22220,132,
37134,112,784,-720,-21736,-54545,22220,133,
37170,128,752,-656,-21936,-54245,23720,129,
37206,112,720,-704,-21936,-54245,23720,133,
37242,112,784,-592,-21936,-54245,23720,124,
37284,176,848,-592,-22036,-54345,23420,124,
37320,80,784,-672,-22036,-54345,23420,128,
37356,112,720,-880,-22336,-54345,24520,138,
37392,64,848,-288,-22336,-54345,24520,89,
37428,144,832,-656,-22336,-54345,24520,125,
37464,64,768,-688,-21736,-53645,23420,130,
37500,144,832,-608,-21736,-53645,23420,124,
37536,16,784,-784,-21736,-53645,23420,134,
37572,128,752,-640,-21836,-54145,24020,128,
37608,16,752,-848,-21836,-54145,24020,138,
37644,160,832,-624,-21836,-54145,24020,125,
37680,96,800,-768,-21636,-54445,23720,133,
37716,240,816,-512,-21636,-54445,23720,125,
37752,96,784,-672,-21536,-54545,24720,128,
37788,96,784,-624,-21536,-54545,24720,125,
37824,64,832,-576,-21536,-54545,24720,118,
37860,176,832,-704,-21636,-54545,23220,130,
37896,272,832,-464,-21636,-54545,23220,125,
37932,176,816,-672,-21636,-54545,23220,129,
37968,112,768,-752,-21436,-54445,23120,134,
38004,144,800,-704,-21436,-54445,23120,131,
38040,160,800,-656,-21436,-54145,24120,128,
38118,176,832,-736,-21436,-54145,24120,130,
38154,128,816,-720,-22136,-54745,25020,128,
38226,128,752,-608,-21736,-54445,24020,127,
38262,128,864,-656,-21736,-54445,24020,124,
38298,192,816,-640,-21736,-54445,24020,127,
38334,176,768,-464,-21436,-54345,23820,121,
38370,112,768,-736,-21436,-54345,23820,133,
38406,112,784,-624,-21436,-54345,23820,126,
38442,160,784,-656,-21736,-54645,24320,128,
38478,128,768,-592,-21736,-54645,24320,125,
38514,160,848,-576,-21736,-54645,24320,121,
38550,160,704,-848,-21836,-54345,23320,139,
38586,112,864,-544,-21836,-54345,23320,118,
38622,192,816,-688,-21936,-54445,23420,130,
38658,80,800,-656,-21936,-54445,23420,127,
38694,256,800,-432,-21936,-54445,23420,124,
38730,176,800,-608,-22136,-54945,23520,127,
38766,160,768,-608,-22136,-54945,23520,128,
38802,160,800,-688,-22136,-54945,23520,130,
38838,144,832,-736,-21536,-54045,24320,129,
38880,96,864,-640,-21536,-54045,24320,122,
38916,16,768,-832,-21636,-53545,23920,136,
38952,208,816,-656,-21636,-53545,23920,128,
38988,96,768,-576,-21636,-53545,23920,123,
39024,48,800,-576,-22036,-54545,23820,120,
39060,16,752,-704,-22036,-54545,23820,131,
39096,112,832,-672,-22036,-54545,23820,126,
39132,32,800,-512,-22036,-54445,22020,117,
39168,112,800,-720,-22036,-54445,22020,132,
39204,64,832,-544,-22236,-54245,25120,114,
39240,192,800,-656,-22236,-54245,25120,127,
39276,112,848,-608,-22236,-54245,25120,119,
39312,208,768,-768,-22236,-54345,23520,134,
39348,80,832,-832,-22236,-54345,23520,133,
39384,96,816,-576,-22236,-54345,23520,121,
39420,112,752,-768,-22436,-54145,23620,134,
39456,96,896,-512,-22436,-54145,23620,112,
39492,96,800,-720,-21736,-54545,22720,132,
39528,96,768,-592,-21736,-54545,22720,126,
39564,128,784,-544,-21736,-54545,22720,123,
39600,80,880,-448,-22236,-54545,24120,105,
39636,96,768,-592,-22236,-54545,24120,124,
39678,240,880,-736,-22236,-54345,24020,129,
39714,160,784,-576,-22236,-54345,24020,124,
39750,80,816,-528,-22236,-54345,24020,116,
39786,128,768,-720,-21836,-54545,22920,133,
39822,64,848,-608,-21836,-54545,22920,122,
39858,160,832,-800,-21836,-54545,22920,134,
39894,160,848,-560,-21636,-54245,24520,120,
39930,128,816,-608,-21636,-54245,24520,123,
39966,160,816,-800,-21636,-54245,24520,133,
40002,192,800,-672,-21436,-54245,24320,129,
40038,64,816,-592,-21436,-54245,24320,120,
40074,128,800,-736,-21336,-54645,24320,131,
40110,160,784,-624,-21336,-54645,24320,127,
40146,144,816,-512,-21336,-54645,24320,119,
40182,128,816,-544,-21636,-54445,24620,119,
40218,208,800,-512,-21636,-54445,24620,122,
40254,160,912,-496,-21636,-54445,24620,113,
40290,64,784,-688,-21436,-54545,24120,129,
40326,192,832,-672,-21436,-54545,24120,128,
40362,64,768,-624,-21936,-54645,23120,127,
40398,48,848,-576,-21936,-54645,23120,119,
40434,176,800,-768,-21936,-54645,23120,134,
40476,80,832,-528,-21436,-54245,22820,117,
40512,112,752,-528,-21436,-54245,22820,123,
40548,192,784,-864,-22036,-54245,25220,135,
40584,16,800,-768,-22036,-54245,25220,131,
40620,208,784,-752,-22036,-54245,25220,132,
40656,96,752,-800,-21436,-54245,25320,134,
40692,96,752,-688,-21436,-54245,25320,129,
40728,80,832,-576,-21436,-54245,25320,117,
40764,128,752,-816,-21736,-54445,23220,137,
40800,80,848,-736,-21736,-54445,23220,129,
40836,64,816,-688,-21736,-54445,23220,128,
40872,192,768,-848,-21836,-54545,24420,136,
40908,16,832,-672,-21836,-54545,24420,125,
40944,240,832,-592,-21536,-54445,24620,126,
40980,240,800,-848,-21536,-54445,24620,135,
41016,32,800,-752,-21536,-54445,24620,131,
41052,96,784,-656,-21536,-54045,23120,128,
41088,48,864,-768,-21536,-54045,23120,130,
41124,128,864,-432,-21536,-54045,23120,111,
41160,64,864,-656,-21336,-54045,23620,123,
41196,112,768,-624,-21336,-54045,23620,127,
41232,112,816,-592,-22136,-54445,23820,122,
41274,160,816,-704,-22136,-54445,23820,129,
41310,80,848,-512,-22136,-54445,23820,113,
41346,160,736,-768,-21736,-54545,23620,135,
41382,128,768,-608,-21736,-54545,23620,127,
41418,176,752,-688,-21736,-54545,23620,132,
41454,96,768,-640,-21836,-54545,23520,128,
41496,48,800,-480,-21836,-54545,23520,112,
41532,128,800,-704,-21736,-54245,22920,131,
41574,256,832,-592,-21736,-54245,22920,128,
41610,144,800,-688,-21736,-54245,22920,130,
41646,304,816,-544,-21936,-54145,23720,129,
41682,32,832,-752,-21936,-54145,23720,130,
41718,160,784,-640,-21536,-54245,24220,128,
41754,80,768,-816,-21536,-54245,24220,135,
41790,144,848,-608,-21536,-54245,24220,122,
41826,144,784,-656,-21636,-54245,23420,129,
41862,144,768,-560,-21636,-54245,23420,125,
41898,144,800,-624,-21636,-54245,23420,127,
41934,144,832,-560,-21236,-54145,24620,120,
41970,48,768,-736,-21236,-54145,24620,132,
42006,112,816,-560,-21736,-54545,24120,120,
42042,144,832,-592,-21736,-54545,24120,126,
42084,176,784,-800,-21736,-54545,24120,134,
42120,0,736,-704,-21436,-54145,23520,133,
42156,80,752,-848,-21436,-54145,23520,138,
42192,48,704,-704,-21436,-54145,23520,134,
42228,64,832,-560,-21536,-54345,24020,117,
42264,144,768,-704,-21536,-54345,24020,131,
42300,224,832,-656,-21336,-54045,24720,127,
42342,160,800,-752,-21336,-54045,24720,131,
42378,176,784,-608,-21336,-54045,24720,126,
42414,128,816,-688,-21736,-54245,23220,129,
42450,0,688,-752,-21736,-54245,23220,138,
42486,96,784,-656,-21836,-54445,23820,127,
42522,144,880,-608,-21836,-54445,23820,122,
42558,80,768,-688,-21836,-54445,23820,130,
42594,112,800,-544,-21736,-54345,24020,120,
42630,352,816,-704,-21736,-54345,24020,134,
42666,64,752,-544,-21736,-54345,24020,121,
42702,64,832,-560,-21536,-54545,23820,118,
42738,144,832,-608,-21536,-54545,23820,124,
42774,80,784,-688,-21936,-54445,23720,129,
42810,128,784,-656,-21936,-54445,23720,128,
42846,128,832,-592,-21936,-54445,23720,122,
42888,64,928,-512,-21636,-54545,24020,108,
42924,96,752,-736,-21636,-54545,24020,133,
42960,128,784,-688,-21636,-54545,24020,130,
43032,224,848,-752,-21736,-54445,23720,131,
43068,176,992,-272,-21636,-53745,24020,105,
43110,160,848,-720,-21636,-53745,24020,128,
43146,128,784,-480,-21636,-53745,24020,117,
43182,176,816,-432,-21936,-53845,24220,116,
43218,112,784,-784,-21936,-53845,24220,133,
43254,144,784,-704,-21936,-53845,24220,130,
43290,240,880,-544,-21636,-54645,24320,123,
43326,48,704,-800,-21636,-54645,24320,138,
43362,192,752,-720,-21936,-54245,23720,133,
43398,192,704,-720,-21936,-54245,23720,135,
43434,80,656,-944,-21936,-54245,23720,143,
43470,64,816,-384,-21736,-54245,23220,103,
43506,32,848,-720,-21736,-54245,23220,128,
43542,192,784,-752,-21736,-54245,23220,134,
43578,256,736,-672,-21536,-53845,23420,133,
43614,240,816,-816,-21536,-53845,23420,135,
43650,96,752,-832,-21736,-54245,24720,136,
43692,192,880,-448,-21736,-54245,24720,115,
43728,192,720,-960,-21736,-54245,24720,140,
43764,128,736,-896,-21336,-53645,25320,138,
43800,128,752,-816,-21336,-53645,25320,135,
43836,112,800,-704,-21336,-53645,25320,127,
43872,16,768,-672,-22236,-54445,23220,129,
43914,112,816,-672,-22236,-54445,23220,127,
43950,288,848,-592,-22136,-54245,24920,126,
43992,112,768,-544,-22136,-54245,24920,120,
44028,192,896,-608,-22136,-54245,24920,121,
44064,192,800,-720,-21236,-54245,23220,132,
44100,80,784,-672,-21236,-54245,23220,129,
44136,208,736,-496,-21336,-54545,23920,126,
44172,80,784,-528,-21336,-54545,23920,119,
44208,160,736,-800,-21336,-54545,23920,137,
44244,176,800,-816,-21736,-54445,24920,134,
44280,0,736,-976,-21736,-54445,24920,142,
44316,64,832,-640,-21736,-54445,24920,122,
44352,272,752,-496,-21936,-54745,24020,128,
44388,144,832,-528,-21936,-54745,24020,119,
44424,144,736,-608,-21136,-54945,23520,130,
44460,128,752,-1008,-21136,-54945,23520,143,
44502,48,848,-512,-21136,-54945,23520,113,
44538,80,816,-528,-21936,-54445,24420,115,
44574,144,848,-544,-21936,-54445,24420,118,
44610,144,800,-416,-21936,-54445,24420,113,
44646,192,800,-688,-21736,-54345,25120,129,
44682,176,720,-736,-21736,-54345,25120,133,
44718,-48,784,-560,-21636,-54445,23620,119,
44760,112,832,-640,-21636,-54445,23620,125,
44796,80,800,-688,-21636,-54445,23620,129,
44832,112,816,-752,-22136,-54245,23720,131,
44868,144,688,-672,-22136,-54245,23720,133,
44904,48,768,-672,-22336,-54745,23020,129,
44940,224,944,-464,-22336,-54745,23020,118,
44976,96,720,-592,-22336,-54745,23020,128,
45012,32,784,-736,-21636,-54245,25120,130,
45084,80,752,-624,-21636,-54245,25120,125,
45120,64,768,-608,-21836,-54345,23520,125,
45156,144,816,-464,-21836,-54345,23520,116,
45192,128,864,-464,-21536,-54745,22620,115,
45228,80,832,-704,-21536,-54745,22620,130,
45264,144,704,-560,-21536,-54745,22620,129,
45306,80,752,-592,-21736,-54145,23920,125,
45342,96,832,-528,-21736,-54145,23920,116,
45378,256,784,-800,-21736,-54145,23920,135,
45414,240,768,-816,-21936,-54045,23720,136,
45450,32,800,-608,-21936,-54045,23720,122,
45486,160,784,-624,-21836,-54245,23420,128,
45528,192,752,-704,-21836,-54245,23420,133,
45564,64,848,-480,-21836,-54245,23420,110,
45600,96,784,-784,-21936,-54145,23520,134,
45636,64,832,-672,-21936,-54145,23520,126,
45672,96,720,-688,-21936,-54145,23520,132,
45708,48,848,-976,-21436,-54245,23420,139,
45744,80,800,-432,-21436,-54245,23420,110,
45780,144,768,-752,-21836,-54145,24020,133,
45816,208,752,-512,-21836,-54145,24020,125,
45852,64,768,-592,-21836,-54145,24020,123,
45888,208,896,-624,-21936,-54045,22920,125,
45924,176,752,-640,-21936,-54045,22920,130,
45960,128,704,-768,-21936,-54045,22920,137,
45996,208,832,-928,-21836,-54545,23920,137,
46032,160,816,-752,-21836,-54545,23920,131,
46068,128,768,-768,-22036,-53645,23320,133,
46110,176,672,-624,-22036,-53645,23320,132,
46146,-64,720,-768,-22036,-53645,23320,137,
46182,304,864,-352,-22236,-54345,23420,125,
46224,208,816,-496,-22236,-54345,23420,122,
46260,16,704,-1040,-22136,-54545,24420,144,
46296,128,720,-608,-22136,-54545,24420,128,
46332,128,736,-784,-22136,-54545,24420,135,
46368,80,816,-528,-22536,-54045,24120,115,
46410,144,768,-720,-22536,-54045,24120,131,
46446,176,784,-704,-22536,-54045,24120,130,
46518,64,800,-848,-22036,-54445,23820,135,
46554,96,816,-576,-21736,-54245,23420,121,
46590,144,784,-640,-21736,-54245,23420,128,
46626,208,816,-752,-21736,-54245,23420,133,
46662,-48,768,-736,-22436,-54645,23020,134,
46698,224,816,-784,-22436,-54645,23020,134,
46734,64,832,-688,-22436,-54645,23020,127,
46770,64,736,-800,-22336,-53745,22720,136,
46806,176,816,-768,-22336,-53745,22720,132,
46842,80,848,-640,-21936,-53945,23820,122,
46878,80,784,-512,-21936,-53945,23820,117,
46920,160,736,-832,-21936,-53945,23820,137,
46956,192,704,-592,-21936,-54145,24220,129,
47028,128,896,-528,-21936,-54145,24220,114,
47064,96,848,-544,-22036,-54145,23920,116,
47100,80,816,-400,-22036,-54145,23920,105,
47136,80,752,-608,-21436,-54245,24020,126,
47178,96,832,-928,-21436,-54245,24020,137,
47250,64,784,-512,-21236,-54445,23620,117,
47286,48,816,-528,-21236,-54445,23620,116,
47322,16,832,-736,-21536,-54245,22920,130,
47394,96,800,-592,-21536,-54245,22920,124,
47430,272,592,-832,-22036,-54245,22820,142,
47466,192,864,-416,-22036,-54245,22820,117,
47502,80,848,-528,-22036,-54245,22820,116,
47538,240,736,-832,-21736,-54445,22420,139,
47574,-32,832,-432,-21736,-54445,22420,100,
47610,112,848,-656,-21736,-54445,22420,127,
47646,32,768,-400,-21536,-54645,22920,105,
47682,144,784,-816,-21536,-54645,22920,136,
47724,160,816,-704,-21936,-54245,24720,128,
47760,64,832,-544,-21936,-54245,24720,114,
47796,144,800,-624,-21936,-54245,24720,125,
47832,128,976,-656,-22036,-54445,23420,120,
47868,32,784,-560,-22036,-54445,23420,120,
47904,112,880,-304,-21736,-54345,24020,99,
47946,96,864,-576,-21736,-54345,24020,118,
47982,32,704,-896,-21736,-54345,24020,141,
48060,112,688,-1024,-22236,-54345,21920,144,
48096,336,832,-560,-21836,-54745,23420,131,
48132,192,784,-624,-21836,-54745,23420,129,
48168,-80,768,-544,-21836,-54745,23420,119,
48204,48,688,-576,-22036,-54345,24820,125,
48240,112,640,-624,-22036,-54345,24820,132,
48276,80,768,-736,-22036,-54345,24820,131,
48312,288,816,-704,-22036,-54145,22720,133,
48348,16,752,-704,-22036,-54145,22720,132,
48384,240,816,-816,-22036,-54145,22720,135,
48420,64,752,-704,-22036,-54345,24420,130,
48456,288,800,-624,-22036,-54345,24420,130,
48492,256,816,-464,-22136,-53845,23820,123,
48534,288,864,-592,-22136,-53845,23820,127,
48570,144,752,-592,-22136,-53845,23820,126,
48606,128,848,-624,-22236,-54145,22320,125,
48642,80,768,-912,-22236,-54145,22320,139,
48678,16,720,-608,-21436,-53845,23220,128,
48714,64,768,-560,-21436,-53845,23220,122,
48750,160,752,-1008,-21436,-53845,23220,141,
48786,112,864,-800,-21536,-54645,22820,133,
48828,32,768,-528,-21536,-54645,22820,120,
48864,240,848,-672,-21536,-54645,22820,130,
48900,272,784,-624,-22236,-54145,22120,132,
48936,256,896,-624,-22236,-54145,22120,128,
48972,160,864,-272,-21736,-54145,23620,107,
49008,208,880,-400,-21736,-54145,23620,116,
49080,320,816,-576,-21736,-54045,22920,131,
49116,192,848,-736,-21736,-54045,22920,131,
49152,-32,912,-592,-21736,-54045,22920,114,
49188,0,800,-496,-21436,-54045,22720,113,
49224,208,848,-688,-21436,-54045,22720,130,
49260,112,720,-848,-21536,-54545,22320,140,
49296,64,752,-752,-21536,-54545,22320,136,
49338,-64,768,-608,-21536,-54545,22320,127,
49374,336,880,-672,-22036,-54245,22120,133,
49410,96,624,-672,-22036,-54245,22120,137,
49446,112,800,-512,-22036,-54245,22120,120,
49482,0,800,-848,-21236,-54145,24820,136,
49518,112,832,-720,-21236,-54145,24820,128,
49590,32,752,-928,-21836,-53945,23320,140,
49626,48,704,-672,-21836,-53945,23320,132,
49662,192,768,-720,-21836,-54145,24420,132,
49698,128,752,-656,-21836,-54145,24420,129,
49734,192,688,-832,-21836,-54145,24420,138,
49770,224,768,-1008,-21836,-54145,23820,140,
49806,144,848,-496,-21836,-54145,23820,116,
49842,80,672,-720,-21336,-53945,24020,136,
49878,80,944,-304,-21336,-53945,24020,90,
49914,-80,752,-608,-21336,-53945,24020,126,
49950,64,832,-480,-21536,-54145,22920,112,
49986,160,800,-464,-21536,-54145,22920,119,
50022,192,800,-512,-21536,-54145,22920,124,
50058,192,848,-416,-21636,-53845,22920,117,
50094,-48,704,-784,-21636,-53845,22920,139,
50136,208,672,-752,-21636,-53845,24620,136,
50208,176,768,-624,-21636,-53845,24620,127,
50244,112,768,-1008,-21036,-53645,24420,141,
50280,160,784,-704,-21036,-53645,24420,130,
50316,112,768,-768,-21036,-53645,24420,133,
50352,176,752,-688,-21736,-53845,22820,132,
50394,64,864,-560,-21736,-53845,22820,117,
50430,0,816,-544,-21536,-54045,22520,117,
50466,176,816,-800,-21536,-54045,22520,135,
50502,80,704,-496,-21536,-54045,22520,122,
50538,144,736,-656,-21836,-54645,23920,131,
50574,16,784,-512,-21836,-54645,23920,114,
50610,160,864,-400,-21136,-54445,23320,112,
50646,176,800,-592,-21136,-54445,23320,127,
50682,240,864,-576,-21136,-54445,23320,126,
50718,192,880,-496,-21736,-53945,23620,118,
50754,192,816,-752,-21736,-53945,23620,132,
50790,240,976,-448,-21736,-53945,23620,117,
50826,272,864,-1024,-21836,-53945,23320,138,
50862,32,832,-656,-21836,-53945,23320,124,
50898,80,736,-656,-21536,-54345,22920,131,
50940,192,848,-448,-21536,-54345,22920,119,
50976,208,800,-720,-21536,-54345,22920,133,
51012,224,864,-368,-21736,-54345,24520,116,
51054,160,848,-480,-21736,-54345,24520,115,
51126,128,880,-624,-21836,-54245,22920,123,
51168,208,912,-288,-21836,-54245,22920,114,
51204,304,800,-800,-21936,-54245,23120,136,
51240,176,832,-736,-21936,-54245,23120,131,
51276,128,768,-624,-21936,-54245,23120,128,
51312,144,800,-752,-21836,-54245,23620,132,
51348,64,800,-592,-21836,-54245,23620,122,
51384,192,768,-496,-21636,-54345,23920,123,
51420,208,784,-480,-21636,-54345,23920,122,
51456,288,896,-624,-21636,-54345,23920,127,
51492,112,672,-592,-21236,-54245,24020,130,
51528,80,848,-544,-21236,-54245,24020,116,
51564,304,768,-800,-21236,-54245,24020,136,
51636,176,816,-576,-21336,-54045,23620,124,
51672,80,736,-752,-21336,-54045,23620,135,
51708,176,672,-896,-21436,-54645,23220,142,
51750,224,928,-832,-21436,-54645,23220,132,
51786,192,800,-544,-21736,-54645,23420,125,
51822,48,896,-384,-21736,-54645,23420,96,
51858,64,784,-432,-21736,-54645,23420,110,
51894,128,896,-784,-21636,-54745,24820,129,
51930,32,816,-624,-21636,-54745,24820,122,
51966,208,800,-704,-21736,-54645,24620,130,
52002,96,800,-768,-21736,-54645,24620,132,
52038,256,896,-256,-21736,-54645,24620,119,
52074,48,736,-512,-21936,-54545,23520,119,
52110,16,752,-720,-21936,-54545,23520,133,
52146,208,704,-688,-21936,-54545,23520,134,
52182,224,752,-736,-21636,-54445,23320,135,
52254,112,832,-512,-21636,-54445,23320,117,
52290,112,752,-608,-21136,-54345,23120,128,
52326,-48,704,-752,-21136,-54345,23120,139,
52362,-48,848,-1120,-21636,-54545,22720,144,
52398,112,768,-736,-21636,-54545,22720,134,
52434,80,800,-576,-21636,-54545,22720,123,
52470,176,864,-576,-21836,-53845,22720,123,
52506,208,800,-576,-21836,-53845,22720,127,
52548,144,880,-560,-21936,-53945,23920,118,
52584,-16,816,-944,-21936,-53945,23920,139,
52620,-16,704,-928,-21936,-53945,23920,142,
52656,-48,768,-720,-21736,-54445,24120,132,
52692,64,736,-208,-21736,-54445,24120,88,
52764,-96,752,-704,-21736,-53745,23320,134,
52800,272,768,-592,-21736,-53745,23320,130,
52836,224,784,-688,-22436,-54145,22720,132,
52878,48,720,-832,-22436,-54145,22720,138,
52914,32,784,-336,-22436,-54145,22720,96,
52950,96,864,-528,-21636,-54445,22020,118,
52986,48,784,-608,-21636,-54445,22020,126,
53022,-144,672,-832,-21636,-54445,22020,146,
53058,208,896,-336,-22236,-54545,22920,115,
53094,128,768,-704,-22236,-54545,22920,132,
53130,96,736,-784,-22236,-54345,23920,135,
53166,-32,848,-192,-22236,-54345,23920,51,
53202,144,752,-832,-22236,-54345,23920,136,
53274,144,752,-672,-21136,-54245,24120,131,
53310,208,720,-1040,-21136,-54245,24120,143,
53352,192,848,-464,-22036,-53945,23120,119,
53424,128,928,-384,-21836,-53945,23920,104,
53460,80,640,-784,-21836,-53945,23920,139,
53496,160,672,-592,-21836,-53945,23920,130,
53532,112,752,-720,-21836,-54145,24020,132,
53574,256,752,-512,-21836,-54145,24020,127,
53688,-112,736,-736,-21936,-54245,23020,138,
53724,-176,672,-992,-21936,-54245,24020,149,
53760,304,960,-704,-21936,-54245,24020,128,
53796,16,800,-176,-21936,-54245,24020,67,
53832,208,976,-416,-21636,-54345,24220,112,
53868,-64,640,-784,-21636,-54345,24220,142,
53904,144,784,-848,-22036,-54045,23720,136,
53940,192,832,-720,-22036,-54045,23720,130,
53976,224,848,-400,-22036,-54045,23720,118,
54012,144,704,-928,-21636,-54145,24320,140,
54048,256,800,-784,-21636,-54145,24320,134,
54084,96,736,-864,-21636,-54145,24320,138,
54120,112,864,-1312,-21636,-53745,22620,145,
54198,96,800,-256,-21036,-53945,23220,97,
54234,224,928,-672,-21036,-53945,23220,126,
54270,112,832,-416,-21036,-53945,23220,110,
54306,48,608,-1248,-21836,-54145,23720,149,
54342,288,704,-1152,-21836,-54145,23720,144,
54378,288,800,-384,-21836,-54145,23720,125,
54414,32,960,-544,-21736,-53945,23920,106,
54450,112,848,-688,-21736,-53945,23920,126,
54486,112,816,-480,-22036,-53645,23020,115,
54522,288,896,-400,-22036,-53645,23020,123,
54558,80,816,-576,-22036,-53645,23020,121,
54594,160,864,-832,-21736,-53545,24720,131,
54630,16,864,-576,-21736,-53545,24720,113,
54666,48,832,-464,-21736,-53545,24720,105,
54702,176,816,-560,-21236,-53745,22920,124,
54738,272,864,-560,-21236,-53745,22920,127,
54810,240,736,-688,-21436,-53845,22120,135,
54846,208,768,-544,-21436,-53845,22120,128,
54882,64,688,-608,-21736,-53745,22420,130,
54918,352,752,-528,-21736,-53745,22420,134,
54960,16,656,-960,-21736,-53745,22420,145,
54996,208,832,-912,-21036,-53845,23320,137,
55032,144,832,-672,-21036,-53845,23320,128,
55068,80,928,-496,-21936,-54045,24720,106,
55104,16,736,-560,-21936,-54045,24720,120,
55140,176,736,-576,-21936,-54045,24720,126,
55176,288,640,-1056,-21536,-53945,23020,144,
55212,224,736,-656,-21536,-53945,23020,133,
55248,320,832,-336,-21536,-53945,23020,128,
55320,128,944,-560,-21836,-53645,22420,116,
55356,80,816,-608,-21536,-53845,23720,122,
55428,144,752,-752,-21536,-53845,23720,134,
55464,32,704,-416,-22236,-53745,23220,110,
55500,-48,720,-832,-22236,-53745,23220,139,
55536,-16,848,-672,-22236,-53745,23220,124,
55572,128,832,-736,-21536,-53745,23020,130,
55608,224,928,-144,-21536,-53745,23020,123,
55644,192,784,-496,-21236,-54245,22820,124,
55680,144,704,-800,-21236,-54245,22820,139,
55716,192,816,-736,-21236,-54245,22820,133,
55758,176,880,-304,-21636,-54445,22820,111,
55794,224,800,-496,-21636,-54445,22820,125,
55830,144,784,-416,-21636,-54445,22820,116,
55866,160,944,-688,-21636,-54045,23420,124,
55938,192,928,-592,-21136,-53645,23420,121,
55980,192,832,-912,-21136,-53645,23420,137,
56016,96,912,-480,-21136,-53645,23420,109,
56052,160,864,-1008,-21336,-54245,23720,138,
56088,32,800,-1136,-21336,-54245,23720,144,
56124,128,800,-608,-21336,-54245,23720,125,
56160,144,944,-1088,-21336,-54045,23820,138,
56196,240,864,-560,-21336,-54045,23820,124,
56232,0,704,-672,-21236,-54145,23320,134,
56268,-112,640,-464,-21236,-54145,23320,123,
56304,-48,640,-416,-21236,-54145,23320,114,
56340,144,704,-720,-21436,-53945,21920,136,
56376,432,880,-672,-21436,-53945,21920,136,
56412,256,752,-528,-21436,-53945,21920,130,
56448,96,864,-976,-21136,-54045,22820,139,
56484,128,880,-1056,-21136,-54045,22820,140,
56520,144,656,-560,-21236,-54045,21820,132,
56562,-96,768,-624,-21236,-54045,21820,130,
56598,112,1088,-192,-21236,-54045,21820,95,
56634,368,736,-1184,-21836,-53645,22720,144,
56670,128,816,-1136,-21836,-53645,22720,142,
56706,64,784,-928,-21736,-53845,23120,139,
56742,208,912,-112,-21736,-53845,23120,124,
56778,64,672,-848,-21736,-53845,23120,141,
56814,336,864,-464,-21336,-54245,22720,129,
56856,-96,752,-864,-21336,-54245,22720,142,
56892,128,704,-768,-21336,-54245,22720,138,
56928,256,816,-848,-21236,-53845,22220,137,
56964,160,880,-528,-21236,-53845,22220,120,
57000,112,768,-736,-21936,-54245,23320,133,
57036,224,768,-560,-21936,-54245,23320,128,
57072,144,720,-832,-21936,-54245,23320,138,
57108,-80,656,-1024,-21536,-54445,23220,148,
57144,-128,800,-608,-21536,-54445,23220,126,
57180,-16,800,-624,-21536,-54445,23220,125,
57216,48,800,-624,-20836,-54145,22220,127,
57252,160,768,-576,-20836,-54145,22220,128,
57288,176,848,-544,-21636,-54345,24520,120,
57324,-48,848,-864,-21636,-54345,24520,135,
57366,256,784,-240,-21636,-54345,24520,123,
57402,0,832,-416,-21336,-54245,23420,98,
57474,240,832,-592,-21336,-54245,23420,127,
57510,208,800,-832,-22036,-53945,22020,136,
57546,224,848,-896,-22036,-53945,22020,137,
57582,320,816,-688,-21336,-53745,22920,133,
57624,256,944,-528,-21336,-53745,22920,122,
57660,160,896,-688,-21336,-53745,22920,126,
57696,-16,848,-64,-21436,-54145,22020,34,
57732,160,832,-816,-21436,-54145,22020,135,
57768,240,784,-896,-21436,-54145,22020,139,
57804,80,720,-1104,-22036,-53945,22820,144,
57840,192,928,-128,-22036,-53945,22820,120,
57876,336,896,-480,-21336,-53845,23520,127,
57912,128,912,-624,-21336,-53845,23520,121,
57948,256,864,-528,-21336,-53845,23520,124,
57984,224,816,-624,-21336,-53745,23620,128,
58020,256,864,-816,-21336,-53745,23620,133,
58056,304,720,-1056,-21336,-53745,23620,142,
58092,112,720,-704,-21836,-53545,23820,132,
58128,144,752,-592,-21836,-53545,23820,126,
58170,304,880,-512,-21636,-54245,24120,125,
58206,288,752,-800,-21636,-54245,24120,136,
58242,-16,768,-576,-21636,-54245,24120,121,
58278,224,832,-704,-21436,-53945,24320,130,
58314,368,800,-352,-21436,-53945,24320,130,
58350,320,864,-1040,-21436,-53945,24320,138,
58386,304,864,-288,-21336,-53845,24020,125,
58428,176,816,-608,-21336,-53845,24020,125,
58464,-128,848,-752,-21336,-54345,23620,133,
58506,160,816,-464,-21336,-54345,23620,118,
58542,256,848,-32,-21336,-54345,23620,141,
58578,368,864,-720,-22036,-54145,24520,132,
58614,208,1008,-480,-22036,-54145,24520,113,
58650,160,832,-624,-21236,-54045,22420,127,
58686,192,960,-352,-21236,-54045,22420,112,
58722,48,768,-688,-21236,-54045,22420,132,
58794,256,928,-336,-21936,-53945,23820,118,
58830,112,784,-288,-21936,-53945,23820,102,
58866,144,800,-480,-21536,-53545,24120,117,
58938,288,832,-928,-21636,-54045,24220,137,
58980,144,896,-208,-21636,-54045,24220,103,
59016,176,880,-192,-21636,-54045,24220,110,
59052,160,720,-1024,-21136,-54345,23820,143,
59088,96,720,-1504,-21136,-54345,23820,150,
59124,80,976,-336,-21136,-54345,23820,91,
59160,48,784,-992,-21936,-53445,23120,140,
59196,32,704,-896,-21936,-53445,23120,141,
59340,192,960,-640,-21236,-53245,23020,122,
59376,-16,896,-368,-21236,-53245,23020,84,
59412,224,912,-544,-21236,-53245,23020,122,
59448,96,784,-560,-21336,-53845,25020,119,
59520,-64,896,-736,-21536,-54045,23320,127,
59556,-64,752,-656,-21536,-54045,23320,130,
59628,112,736,-256,-21336,-54145,21820,106,
59664,224,752,-592,-21336,-54145,21820,132,
59700,-112,960,-608,-21336,-54145,21820,115,
59736,80,880,-384,-21836,-54145,24420,99,
59778,48,848,-432,-21836,-54145,24420,102,
59814,80,864,16,-21636,-54045,23420,148,
59850,48,912,-800,-21636,-54045,23420,129,
59886,80,720,-432,-21636,-54045,23420,114,
59922,48,688,-1056,-21936,-54345,23020,145,
59958,16,752,-1024,-21936,-54345,23020,143,
59994,464,896,-800,-21936,-54345,23020,137,
60030,64,912,-864,-21136,-54545,23420,133,
60066,64,720,-928,-21136,-54545,23420,142,
60102,288,848,-256,-21836,-54345,23420,125,
60144,144,848,-640,-21836,-54345,23420,125,
60180,208,784,-192,-21836,-54345,23420,120,
60216,160,784,-512,-21436,-54145,23720,121,
60252,16,880,-544,-21436,-54145,23720,111,
60288,-48,800,-592,-22036,-54345,22820,122,
60324,32,848,-608,-22036,-54345,22820,121,
60360,256,784,-720,-22036,-54345,22820,134,
60396,96,784,-512,-22236,-54445,22320,120,
60432,224,912,-128,-22236,-54445,22320,126,
60468,48,832,-400,-22236,-54445,22320,103,
60504,96,896,-1008,-21936,-54145,24220,137,
60540,160,720,-672,-21936,-54145,24220,131,
60582,160,832,-880,-22236,-54445,25020,134,
60618,240,848,-672,-22236,-54445,25020,127,
60654,-32,784,-352,-22236,-54445,25020,83,
60690,112,800,-832,-21636,-53745,23320,135,
60726,160,832,-640,-21636,-53745,23320,126,
60762,256,832,-512,-21636,-53745,23320,125,
60798,272,832,-1104,-21736,-53945,23820,140,
60834,-64,496,-880,-21736,-53945,23820,150,
60870,112,736,-768,-22236,-54145,23920,134,
60906,128,784,-944,-22236,-54145,23920,138,
60942,112,640,-944,-22236,-54145,23920,143,
60978,192,736,-752,-22036,-54245,22920,135,
61014,48,688,-1152,-22036,-54245,22920,146,
61050,304,1088,-176,-22036,-54245,22920,127,
61086,128,688,-800,-22036,-53845,22620,138,
61122,-16,864,-720,-22036,-53845,22620,127,
61158,-80,976,-1056,-22136,-53745,22820,138,
61194,240,944,-912,-22136,-53745,22820,134,
61266,272,800,-1088,-21536,-53945,23420,141,
61302,-16,704,-944,-21536,-53945,23420,143,
61338,16,736,-368,-21536,-53945,23420,100,
61380,-16,784,-384,-22036,-53845,23320,95,
61416,128,848,-992,-22036,-53845,23320,138,
61452,240,800,-384,-21636,-53945,22920,122,
61488,160,896,-464,-21636,-53945,22920,115,
61524,272,864,-240,-21636,-53945,22920,124,
61560,16,928,-896,-22236,-53945,23920,132,
61602,192,560,-768,-22236,-53945,23920,140,
61674,256,944,-208,-22036,-53945,23320,122,
61716,192,848,-800,-22036,-53945,23320,132,
61752,400,800,-1136,-21536,-54545,22720,143,
61788,256,880,-544,-21536,-54545,22720,126,
61824,48,768,-1216,-21536,-54545,22720,146,
61860,48,880,-496,-21636,-54145,24620,106,
61896,-32,624,-784,-21636,-54145,24620,142,
61968,224,720,-768,-21736,-54645,22520,138,
62004,112,912,-272,-21736,-54645,22520,99,
62040,128,784,-768,-21236,-53945,24420,133,
62076,224,592,-336,-21236,-53945,24420,126,
62112,16,768,-368,-21236,-53945,24420,95,
62148,-160,656,-592,-22236,-54445,22420,137,
62190,48,832,-800,-22236,-54445,22420,133,
62226,16,688,-1168,-22236,-54345,24320,146,
62262,16,656,-704,-22236,-54345,24320,135,
62334,224,864,-752,-21736,-54245,23620,131,
62370,176,800,-704,-21736,-54245,23620,131,
62406,160,864,-608,-21736,-54245,23620,123,
62442,192,864,-544,-21736,-54045,22720,122,
62484,32,784,-1136,-21736,-54045,22720,144,
62520,96,784,-1120,-22536,-54045,23720,142,
62592,448,816,-1088,-22536,-54045,23720,140,
62628,336,816,-336,-22036,-53845,23820,128,
62700,336,944,-448,-22036,-53845,23820,125,
62736,160,768,-720,-22036,-54645,24120,132,
62772,208,720,-976,-22036,-54645,24120,141,
62808,160,768,-784,-21636,-54445,23220,135,
62844,320,784,-576,-21636,-54445,23220,132,
62880,272,960,-320,-21636,-54445,23220,120,
62916,336,912,-896,-21736,-53945,24320,134,
62952,160,752,-288,-21736,-53945,24320,111,
62994,208,784,-848,-21736,-53945,24320,135,
63030,224,800,-1200,-21936,-54045,23020,143,
63066,352,880,-1152,-21936,-54045,23020,141,
63102,192,544,-496,-21536,-53945,23120,134,
63138,304,640,-896,-21536,-53945,23120,142,
63210,-128,688,-1088,-21536,-53945,23720,149,
63246,288,800,-576,-21536,-53945,23720,129,
63282,208,752,-704,-21536,-53945,23720,133,
63318,96,752,-640,-21936,-53245,24120,127,
63354,-64,944,-96,-21936,-53245,24120,10,
63390,96,848,-688,-21536,-53845,24120,126,
63426,304,944,-1024,-21536,-53845,24120,136,
63462,-128,848,-1152,-21536,-53845,24120,146,
63498,-96,656,-832,-22036,-53945,22920,144,
63534,176,928,-816,-22036,-53945,22920,130,
63570,80,880,-896,-22036,-53945,22920,134,
63606,240,592,-880,-21936,-53745,23820,142,
63642,-176,736,-672,-21936,-53745,23820,136,
63678,112,720,-1168,-21536,-54045,24720,145,
63714,80,896,-736,-21536,-54045,24720,125,
63750,192,736,-480,-21536,-54045,24720,122,
63792,96,864,-896,-21536,-54045,22320,136,
63828,128,1008,-48,-21536,-54045,22320,124,
63864,176,768,-720,-21536,-54045,22320,134,
63900,16,656,-1376,-21936,-53645,22920,150,
63936,32,784,-960,-21936,-53645,22920,140,
63972,192,944,-608,-21236,-53645,22420,123,
64014,192,720,-592,-21236,-53645,22420,131,
64050,208,704,-928,-21236,-53645,22420,142,
64086,48,944,-288,-21236,-53845,23320,83,
64122,48,704,-576,-21236,-53845,23320,127,
64158,144,1056,-720,-22236,-53845,23620,120,
64230,16,784,-592,-22236,-53845,23620,121,
64266,16,672,-704,-21736,-53045,24620,134,
64302,592,704,-848,-21736,-53045,24620,141,
64338,-32,688,-400,-21736,-53045,24620,101,
64374,368,800,-768,-21836,-53045,24220,135,
64410,112,832,-400,-21836,-53045,24220,106,
64446,-32,688,-176,-21836,-53045,24220,51,
64482,448,720,-464,-21636,-52945,23620,136,
64518,176,896,-304,-21636,-52945,23620,108,
64554,384,880,-768,-21836,-53045,23020,134,
64596,224,672,-1040,-21836,-53045,23020,143,
64632,160,880,-944,-21836,-53045,23020,135,
64668,320,864,-1008,-21636,-53545,24520,137,
64704,176,848,-976,-21636,-53545,24520,137,
64740,304,896,-816,-21936,-53645,23020,133,
64848,48,736,-720,-22036,-53645,23520,132,
64890,176,784,-480,-22036,-53645,23520,120,
64926,-48,608,-976,-22036,-53645,23520,147,
64962,272,864,-688,-21736,-53545,23020,130,
64998,16,720,-512,-21736,-53545,23020,119,
65034,224,656,-688,-21936,-53645,23820,135,
65070,128,672,-992,-21936,-53645,23820,143,
65106,336,928,-384,-21936,-53645,23820,125,
65142,-16,784,-544,-22036,-53445,22620,118,
65178,-128,880,-592,-22036,-53445,22620,116,
65214,16,896,-48,-22036,-53445,22620,67,
65250,64,816,-672,-22136,-53145,23820,125,
65286,144,864,-272,-22136,-53145,23820,104,
65358,192,816,-1056,-22236,-54245,24120,140,
65400,-208,800,-800,-22236,-54245,24120,140,
65436,176,480,-928,-21536,-53545,23020,147,
65472,112,704,-400,-21536,-53545,23020,115,
65508,208,736,-960,-21536,-53545,23020,141,
65544,-64,560,-528,-21236,-53245,23020,134,
65580,384,992,-704,-21236,-53245,23020,130,
65616,304,976,-576,-21736,-53945,22820,125,
65658,96,848,-432,-21736,-53945,22820,109,
65694,144,896,-256,-21736,-53945,22820,104,
65766,256,784,-480,-21836,-53745,22220,127,
65802,16,704,-672,-22236,-53545,23720,131,
65874,-112,672,-784,-22236,-53545,23720,141,
65910,80,976,0,-21736,-53245,24020,137,
65946,64,704,-944,-21736,-53245,24020,141,
65982,240,912,-112,-21736,-53245,24020,127,
66018,160,864,-240,-21736,-53845,23820,107,
66054,32,688,-800,-21736,-53845,23820,138,
66090,-80,736,-480,-21736,-53845,23820,112,
66126,176,928,-688,-21836,-53945,23920,124,
66162,-16,720,-448,-21836,-53945,23920,109,
66204,16,800,-784,-21536,-54145,23420,134,
66240,240,752,-1184,-21536,-54145,23420,144,
66276,192,976,-640,-21536,-54145,23420,122,
66312,-16,592,-576,-21936,-53745,22620,134,
66348,32,880,-880,-21936,-53745,22620,134,
66384,80,960,-272,-21436,-53945,22020,91,
66420,176,864,-1072,-21436,-53945,22020,141,
66456,224,704,-1088,-21436,-53945,22020,145,
66492,144,912,-848,-21636,-53545,24420,130,
66534,112,864,-496,-21636,-53545,24420,112,
66570,-48,880,-448,-21636,-53545,24420,92,
66606,48,784,-832,-21836,-54045,24520,135,
66642,-32,832,-528,-21836,-54045,24520,109,
66678,288,944,-400,-22336,-53845,23320,121,
66714,352,640,-768,-22336,-53845,23320,139,
66750,-32,832,-576,-22336,-53845,23320,116,
66786,256,864,-880,-21636,-53545,24120,134,
66822,304,880,-496,-21636,-53545,24120,125,
66894,416,1136,-912,-22236,-54145,24620,130,
66930,160,912,-432,-22236,-54145,24620,109,
66966,96,672,-704,-22036,-54245,22320,136,
67008,160,736,-832,-22036,-54245,22320,138,
67044,368,832,-576,-22036,-54245,22320,133,
67080,176,832,-1088,-22036,-53745,23120,140,
67116,112,896,-864,-22036,-53745,23120,132,
67152,192,752,-1712,-22036,-53745,23120,149,
67188,352,672,-1152,-22236,-54245,23820,144,
67230,128,784,-1056,-22236,-54245,23820,141,
67302,144,752,-640,-22036,-53945,24020,128,
67338,-16,880,-368,-22036,-53945,24020,84,
67374,-64,976,-720,-21636,-53745,23020,121,
67410,80,960,-592,-21636,-53745,23020,115,
67446,320,960,-288,-21836,-53845,23620,124,
67482,-48,800,-256,-21836,-53845,23620,61,
67518,0,640,-1072,-21836,-53845,23620,147,
67554,208,912,-400,-22236,-53545,22720,116,
67590,-80,752,-1392,-22236,-53545,22720,149,
67626,192,704,-1008,-22236,-53545,22720,142,
67662,0,832,-992,-22036,-53645,23620,139,
67698,80,880,-496,-22036,-53645,23620,110,
67734,-16,752,-528,-22036,-53645,23620,117,
67770,288,848,-768,-22036,-54045,24120,67,
67812,0,720,-224,-22036,-54045,24120,72,
67848,432,880,-544,-22436,-54145,24020,132,
67884,-32,672,-592,-22436,-54145,24020,128,
67920,-112,848,-800,-22436,-54145,24020,133,
67956,176,816,-560,-21936,-53645,22620,124,
67998,128,768,-736,-21936,-53645,22620,133,
68034,160,912,-912,-21836,-53745,23720,133,
68070,288,832,-336,-21836,-53745,23720,124,
68106,64,736,-512,-21836,-53745,23720,119,
68142,144,736,-592,-21836,-53245,22620,128,
68178,336,752,-592,-21836,-53245,22620,134,
68214,240,816,-208,-21836,-53245,22620,123,
68250,240,784,-400,-22136,-53745,23620,122,
68286,-128,832,-944,-22136,-53745,23620,140,
68322,464,848,-496,-21836,-53645,23320,135,
68358,32,736,-480,-21836,-53645,23320,115,
68430,32,912,-832,-21836,-54145,23920,130,
68466,208,720,-784,-21836,-54145,23920,136,
68502,320,880,-144,-21836,-54145,23920,133,
68538,208,816,-752,-22036,-54445,23320,133,
68574,112,960,-784,-22036,-54445,23320,127,
68616,112,800,-272,-21636,-53445,23720,100,
68652,160,848,-624,-21636,-53445,23720,124,
68688,48,832,-1056,-21636,-53445,23720,140,
68724,96,688,-656,-22436,-53845,23220,132,
68760,192,752,-784,-22436,-53845,23220,135,
68796,144,896,-736,-22436,-53845,23220,127,
68832,240,960,-848,-21736,-53945,23720,131,
68868,80,912,-1248,-21736,-53945,23720,142,
68940,320,816,-272,-22036,-54345,23720,128,
68976,32,592,-992,-22036,-54345,23720,146,
69012,32,800,-816,-21736,-54145,24420,134,
69048,192,848,-464,-21736,-54145,24420,117,
69084,160,848,-128,-21736,-54145,24420,113,
69120,352,928,-752,-21736,-53845,24820,130,
69156,160,816,-528,-21736,-53845,24820,119,
69192,144,592,-752,-21836,-54245,23520,140,
69228,224,864,-624,-21836,-54245,23520,126,
69264,192,816,-256,-21836,-54245,23520,114,
69300,304,880,0,-21936,-53545,24020,147,
69336,32,672,-912,-21936,-53545,24020,142,
69372,352,640,-560,-21936,-53545,24020,135,
69414,288,1024,-1088,-22236,-53945,24620,134,
69450,160,656,-1104,-22236,-53945,24620,144,
69486,240,880,-928,-21836,-54245,22620,137,
69522,128,672,-448,-21836,-54245,22620,123,
69558,16,832,-928,-21836,-54245,22620,138,
69594,96,864,-944,-21836,-54245,22220,138,
69630,464,928,64,-21836,-54245,22220,157,
69666,48,848,-224,-21836,-54245,22220,84,
69702,176,752,-1104,-21536,-53945,23020,143,
69738,144,640,-1264,-21536,-53945,23020,148,
69774,256,848,-736,-21636,-53545,23620,131,
69810,256,976,-1280,-21636,-53545,23620,140,
69846,-48,704,-272,-21636,-53545,23620,71,
69882,80,816,-256,-21636,-54145,22920,94,
69918,0,672,-64,-21636,-54145,22920,50,
69954,-16,720,-1440,-21636,-54145,22920,150,
69990,64,592,-784,-21736,-54345,23920,141,
70026,80,848,-1072,-21736,-54345,23920,140,
70062,224,624,-896,-21236,-54645,23020,143,
70098,-32,816,-976,-21236,-54645,23020,142,
70170,224,880,-592,-21836,-54245,24020,124,
70212,-64,976,-896,-21836,-54245,24020,131,
70248,240,928,-480,-21836,-54245,24020,119,
70284,64,800,-240,-22436,-54245,23720,89,
70320,176,832,-624,-22436,-54245,23720,125,
70356,-64,752,-1360,-22636,-54545,25020,148,
70392,-128,912,-608,-22636,-54545,25020,111,
70428,240,816,-592,-22636,-54545,25020,125,
70464,-16,992,-816,-22336,-54245,22620,127,
70500,96,832,-832,-22336,-54245,22620,134,
70536,32,768,128,-22336,-54245,22620,204,
70572,192,784,-64,-22236,-53745,24520,131,
70608,400,832,-624,-22236,-53745,24520,132,
70680,112,784,-496,-22636,-53845,24120,116,
70716,224,752,48,-22636,-53845,24120,155,
70788,192,1040,-144,-22136,-54045,24320,114,
70824,-144,528,-1376,-22136,-54045,24320,154,
70860,0,720,-1392,-22336,-54245,23620,149,
70896,272,848,-688,-22336,-54245,23620,130,
70932,80,768,-624,-21936,-54245,24720,125,
70968,-160,672,-752,-21936,-54245,24720,143,
71010,-224,560,-1408,-21936,-54245,24720,156,
71118,-96,944,0,-21636,-53945,23320,304,
71154,112,784,-384,-21936,-53645,24220,108,
71190,112,640,-752,-21936,-53645,24220,137,
71226,-16,656,-1392,-22236,-53645,23820,150,
71262,128,1056,-832,-22236,-53645,23820,124,
71298,496,896,-64,-22236,-53645,23820,148,
71334,80,832,-112,-21836,-53845,23620,94,
71370,-48,864,-256,-21836,-53845,23620,58,
71406,32,864,-1200,-21836,-53845,23620,143,
71442,32,688,-400,-21936,-53445,23920,108,
71478,96,816,-224,-21936,-53445,23920,94,
71514,128,688,-1056,-21736,-53445,24220,143,
71550,320,1088,144,-21736,-53445,24220,163,
71586,320,720,-704,-21736,-53445,24220,135,
71622,320,656,-336,-21636,-54045,23820,132,
71658,240,864,-464,-21636,-54045,23820,121,
71694,128,864,-848,-21636,-54045,23820,133,
71730,-272,720,-272,-21736,-53845,23520,336,
71766,32,848,-784,-21736,-53845,23520,131,
71808,368,640,-640,-21536,-53445,23220,138,
71844,160,800,-1200,-21536,-53445,23220,143,
71880,128,672,-528,-21536,-53445,23220,127,
71916,48,768,32,-21236,-53645,23520,167,
71952,256,736,368,-21236,-53645,23520,184,
71988,416,896,-1152,-21236,-53645,23520,140,
72024,-64,672,-528,-21536,-54145,22620,126,
72060,448,880,-672,-21536,-54145,22620,135,
72096,208,736,-1360,-21936,-53645,22420,146,
72132,192,720,-1152,-21936,-53645,22420,144,
72168,0,816,-304,-21936,-53645,22420,84,
72204,96,928,-800,-21536,-53845,23820,128,
72240,-240,672,-400,-21536,-53845,23820,127,
72276,384,976,-576,-21536,-53845,23820,128,
72312,144,688,-528,-21436,-53745,24020,126,
72348,-176,784,-96,-21436,-53745,24020,326,
72384,144,672,-704,-21636,-53545,23220,135,
72420,160,816,-1328,-21636,-53545,23220,145,
72456,272,1072,-704,-21636,-53545,23220,124,
72492,176,944,-272,-21736,-53745,22820,108,
72528,496,832,-512,-21736,-53745,22820,137,
72564,432,880,-272,-21736,-53745,22820,136,
72606,192,784,-96,-21436,-53445,24020,125,
72642,160,944,-1200,-21436,-53445,24020,140,
72678,400,1024,-784,-21836,-53845,22220,133,
72720,176,880,-128,-21836,-53845,22220,119,
72756,176,784,-800,-21836,-53845,22220,136,
72792,208,880,-800,-21636,-53945,22320,133,
72828,128,864,-16,-21636,-53945,22320,136,
72864,32,720,-752,-21436,-53045,22720,136,
72900,208,912,-1072,-21436,-53045,22720,138,
72936,48,992,-1088,-21436,-53045,22720,137,
72972,-208,704,-176,-22436,-53545,25420,337,
73008,32,928,-1280,-22436,-53545,25420,141,
73044,-208,656,160,-22436,-53545,25420,242,
73080,80,720,-192,-22436,-53745,24120,93,
73116,256,800,-528,-22436,-53745,24120,125,
73152,48,576,-896,-22436,-53745,24120,144,
73188,80,672,-1088,-21936,-53545,23720,145,
73224,144,608,-304,-21936,-53545,23720,117,
73260,240,768,-80,-22036,-53345,23020,135,
73296,304,784,-784,-22036,-53345,23020,135,
73332,-128,656,-896,-22036,-53345,23020,146,
73368,272,864,224,-21536,-53245,22120,176,
73410,-160,688,-1216,-21536,-53245,22120,151,
73446,-64,496,-1088,-21236,-53645,23320,152,
73482,384,832,0,-21236,-53645,23320,150,
73554,192,928,-256,-21336,-53945,23120,111,
73590,-176,912,-528,-21336,-53945,23120,105,
73626,64,656,-240,-21336,-53945,23120,97,
73662,-128,928,-672,-21736,-53645,24020,119,
73698,80,848,-944,-21736,-53645,24020,136,
73734,128,960,96,-21736,-53645,24020,171,
73770,-96,688,-1056,-21636,-53245,24120,147,
73806,192,640,-1232,-21636,-53245,24120,146,
73842,160,784,-928,-21636,-53045,23420,138,
73878,144,1040,-912,-21636,-53045,23420,129,
73914,144,688,-896,-21636,-53045,23420,140,
73950,144,832,-384,-21636,-53645,22720,112,
74022,96,800,352,-21636,-53645,22720,197,
74058,208,848,-400,-21436,-53345,23120,117,
74166,224,848,-656,-21636,-53145,24220,126,
74208,-32,896,-240,-21636,-53145,24220,56,
74244,-192,736,-976,-21636,-53245,23420,147,
74280,32,640,-592,-21636,-53245,23420,131,
74316,320,864,-368,-21936,-53745,23920,125,
74358,336,816,48,-21936,-53745,23920,154,
74394,16,704,-912,-21936,-53745,23920,141,
74430,416,816,-416,-22236,-53645,23420,133,
74466,272,976,-1168,-22236,-53645,23420,138,
74502,64,736,-880,-22236,-53645,23420,138,
74574,-256,480,-960,-22036,-53545,22820,156,
74610,0,656,-512,-22036,-53845,24520,122,
74646,224,912,-592,-22036,-53845,24520,121,
74682,-160,720,-640,-22036,-53845,24520,133,
74718,272,656,-1152,-21736,-53645,23420,145,
74754,128,832,-576,-21736,-53645,23420,121,
74790,0,768,-576,-21736,-53645,23420,121,
74826,-64,896,-496,-21836,-53445,23720,99,
74862,16,672,-1152,-21836,-53445,23720,147,
74898,192,912,-816,-21936,-53745,23820,130,
74934,64,848,-144,-21936,-53745,23820,84,
74970,-112,704,-592,-21936,-53745,23820,129,
75012,-176,592,-1104,-22936,-53845,24120,151,
75048,-256,640,-832,-22936,-53845,24120,150,
75084,320,576,-1184,-22936,-53845,24120,145,
75120,160,800,-240,-22436,-53745,23620,109,
75162,224,816,-1024,-22436,-53745,23620,139,
75198,96,576,-688,-22036,-53545,23720,138,
75234,320,928,-880,-22036,-53545,23720,133,
75270,192,912,-400,-22036,-53545,23720,112,
75306,192,800,-336,-22336,-53645,24020,114,
75342,16,1104,-304,-22336,-53645,24020,71,
75378,208,688,-496,-22336,-53645,24020,126,
75414,112,960,-464,-21636,-53545,23220,107,
75450,400,720,-1088,-21636,-53545,23220,143,
75486,256,1056,-352,-22136,-53345,22920,115,
75522,272,848,-528,-22136,-53345,22920,126,
75558,80,752,-1152,-22136,-53345,22920,144,
75594,80,784,-864,-22236,-53345,22520,136,
75630,544,928,-656,-22236,-53345,22520,136,
75702,-32,928,-384,-22536,-53645,23920,81,
75738,288,992,0,-22536,-53645,23920,146,
75774,-64,752,-1104,-22536,-53345,23820,144,
75816,352,880,-640,-22536,-53345,23820,130,
75852,32,672,-1120,-22536,-53345,23820,145,
75888,112,864,48,-22236,-53345,22820,161,
75930,-176,736,-384,-22236,-53345,22820,92,
75966,128,912,-224,-21336,-53545,22620,101,
76008,64,608,-464,-21336,-53545,22620,125,
76044,48,752,-800,-21336,-53545,22620,137,
76080,-32,816,-304,-22436,-53445,23720,74,
76116,-224,752,-1168,-22436,-53445,23720,150,
76152,320,672,-816,-22436,-53445,23720,138,
76188,32,640,-752,-22136,-53345,23520,138,
76224,224,816,-960,-22136,-53345,23520,137,
76260,368,784,-656,-22136,-53345,23720,133,
76296,0,864,-352,-22136,-53345,23720,85,
76332,112,736,-640,-22136,-53345,23720,128,
76368,0,592,-192,-21636,-53345,23020,75,
76404,272,688,-1024,-21636,-53345,23020,143,
76440,336,672,-784,-21636,-53345,23020,139,
76476,144,672,-624,-22136,-53445,23220,131,
76512,480,672,-880,-22136,-53445,23220,141,
76548,480,912,-96,-21936,-52745,22820,146,
76584,128,736,-928,-21936,-52745,22820,139,
76626,-64,768,-96,-21936,-52745,22820,13,
76662,-32,624,-768,-22336,-53345,21720,141,
76698,16,656,-1232,-22336,-53345,21720,148,
76734,224,1024,-784,-22136,-53045,23120,126,
76770,336,736,-880,-22136,-53045,23120,139,
76806,384,864,-16,-22136,-53045,23120,149,
76842,112,768,-992,-22436,-53745,21520,141,
76878,256,800,-752,-22436,-53745,21520,135,
76914,80,720,-784,-22436,-53745,21520,137,
76950,112,848,-928,-22436,-53545,23620,135,
76986,112,928,-1072,-22436,-53545,23620,137,
77022,256,736,-1072,-22436,-53545,23620,141,
77058,384,912,-1216,-22436,-53245,23220,140,
77094,400,1088,368,-22436,-53245,23220,177,
77130,-16,880,-368,-22536,-53845,21820,89,
77166,80,976,-256,-22536,-53845,21820,91,
77238,0,688,-1088,-22636,-53845,22220,146,
77274,16,912,-1232,-22636,-53845,22220,142,
77310,-112,864,-624,-22636,-53845,22220,120,
77346,96,672,-672,-22636,-54145,21720,135,
77382,16,848,-544,-22636,-54145,21720,116,
77424,208,832,-368,-22636,-53445,24320,115,
77460,32,832,-384,-22636,-53445,24320,95,
77496,-112,704,-192,-22636,-53445,24320,26,
77532,32,656,-1488,-22536,-53945,23320,150,
77568,192,848,-736,-22536,-53945,23320,130,
77604,16,624,-1088,-22536,-53945,23320,147,
77640,160,960,-304,-22336,-53245,23120,105,
77682,64,800,-1472,-22336,-53245,23120,147,
77718,80,816,-1440,-22336,-53845,23420,146,
77754,256,992,-656,-22336,-53845,23420,124,
77790,416,720,-192,-22336,-53845,23420,140,
77826,-352,752,-1024,-22136,-53245,24120,153,
77862,208,768,-304,-22136,-53245,24120,117,
77898,336,560,-816,-21836,-53445,23820,142,
77934,128,928,-1136,-21836,-53445,23820,139,
77970,240,1088,-1360,-21836,-53445,23820,139,
78006,336,832,-224,-22136,-53645,23520,131,
78042,80,784,-1040,-22136,-53645,23520,141,
78078,-32,496,-1184,-22136,-53645,23520,151,
78114,-48,848,-496,-21636,-53345,23520,104,
78150,272,1040,-112,-21636,-53345,23520,129,
78186,192,992,-480,-21636,-53145,22920,114,
78228,144,784,-944,-21636,-53145,22920,139,
78264,64,880,-416,-21636,-53145,22920,102,
78300,-96,832,-368,-22136,-52645,22620,78,
78336,320,944,-80,-22136,-52645,22620,139,
78372,240,784,-608,-22136,-52645,22620,129,
78408,0,992,-432,-22136,-53245,22120,92,
78444,0,528,-976,-22136,-53245,22120,148,
78480,-48,928,-480,-21836,-52945,22420,97,
78522,224,720,-784,-21836,-52945,22420,137,
78558,320,1136,-576,-21836,-52945,22420,122,
78594,16,656,-1872,-21936,-53445,24220,152,
78630,416,912,-928,-21936,-53445,24220,136,
78666,96,736,-880,-21936,-53445,24220,138,
78702,240,768,-672,-22136,-53545,23720,131,
78774,192,720,-720,-21836,-53445,22720,135,
78810,256,848,-1120,-21836,-53445,22720,141,
78846,208,1088,-1024,-21836,-53445,22720,132,
78882,-96,800,-1008,-22136,-53245,23320,142,
78918,560,848,880,-22136,-53245,23320,185,
78954,192,880,-704,-22136,-53245,23320,127,
78990,160,576,-704,-22436,-53245,23920,137,
79032,256,1072,-400,-22436,-53245,23920,114,
79068,208,1008,-1472,-22036,-53045,21920,143,
79104,192,688,-384,-22036,-53045,21920,123,
79140,128,560,-1344,-22036,-53045,21920,149,
79176,192,896,-320,-21836,-53645,23220,112,
79218,128,912,-272,-21836,-53645,23220,100,
79254,240,752,-80,-22636,-53845,22520,137,
79296,16,944,-224,-22636,-53845,22520,72,
79332,160,880,-224,-22636,-53845,22520,109,
79368,0,736,-720,-22036,-53245,23120,133,
79404,336,976,-432,-22036,-53245,23120,124,
79440,-48,592,-1104,-22036,-53245,23120,149,
79476,144,720,-352,-22336,-53245,21920,116,
79512,256,816,-128,-22336,-53245,21920,132,
79548,0,800,-368,-21836,-53345,23820,91,
79584,272,736,-816,-21836,-53345,23820,137,
79620,208,960,-480,-21836,-53345,23820,115,
79656,-192,688,-704,-22036,-53145,22520,142,
79692,128,896,-864,-22036,-53145,22520,133,
79728,576,1072,-176,-22036,-53145,22520,144,
79764,272,928,112,-22236,-53245,23220,163,
79800,80,624,-1072,-22236,-53245,23220,145,
79842,-256,832,-16,-21636,-53445,22920,286,
79878,128,704,-256,-21636,-53445,22920,108,
79914,128,816,-1040,-21636,-53445,22920,140,
79950,272,880,-448,-22136,-53545,22420,124,
79992,80,784,-384,-22136,-53545,22420,107,
80028,-32,784,-496,-22136,-53745,23420,110,
80106,160,480,-1424,-22136,-53745,23420,150,
80142,-16,672,-1248,-21736,-53245,21820,149,
80178,176,832,-512,-21736,-53245,21820,122,
80214,-144,928,-1120,-21736,-53245,21820,143,
80250,192,848,-224,-21636,-53345,23320,114,
80286,0,672,-240,-21636,-53345,23320,79,
80322,272,608,-912,-22636,-53545,23620,142,
80358,560,560,-720,-22636,-53545,23620,143,
80394,368,976,-528,-22636,-53545,23620,126,
80430,-96,480,-112,-22136,-53445,22920,7,
80466,128,880,-960,-22136,-53445,22920,136,
80502,0,704,-672,-22136,-53445,22920,132,
80538,256,608,-1184,-22136,-53345,23320,146,
80574,32,864,-752,-22136,-53345,23320,128,
80610,-256,672,-528,-22236,-53745,22520,141,
80652,112,928,48,-22236,-53745,22520,161,
80688,128,784,-992,-22236,-53745,22520,140,
80724,-272,832,-432,-21436,-54145,23720,104,
80766,-64,784,-1280,-21436,-54145,23720,148,
80802,48,640,-880,-21536,-53645,23320,143,
80838,208,864,-64,-21536,-53645,23320,132,
80874,-32,800,-1024,-21536,-53645,23320,142,
80910,176,816,-512,-21236,-53145,23320,121,
80952,240,800,-592,-21236,-53145,23320,128,
81024,432,944,-48,-21736,-53445,22720,147,
81060,448,624,-576,-21736,-53445,22720,140,
81096,240,864,-704,-21836,-53145,21620,131,
81132,-192,800,-96,-21836,-53145,21620,326,
81168,192,880,-32,-21836,-53145,21620,139,
81204,368,1168,416,-21836,-52845,22520,181,
81240,224,1088,-688,-21836,-52845,22520,121,
81276,80,816,-832,-21836,-52845,22520,134,
81312,192,944,-352,-21736,-52645,24120,109,
81348,48,640,-336,-21736,-52645,24120,104,
81384,144,832,-544,-21736,-52845,23820,119,
81420,80,640,-880,-21736,-52845,23820,141,
81462,-48,896,-928,-21736,-52845,23820,135,
81498,-48,592,-640,-22236,-52645,22320,137,
81534,-96,400,-944,-22236,-52645,22320,153,
81570,112,1152,48,-22236,-52645,22320,161,
81606,352,1088,-560,-21736,-53345,24020,122,
81648,80,816,-656,-21736,-53345,24020,124,
81684,176,752,-384,-22136,-53345,24420,116,
81726,160,736,-16,-22136,-53345,24420,139,
81762,128,880,-752,-22136,-53345,24420,127,
81798,-96,848,208,-21836,-53145,22520,229,
81840,208,912,-128,-21836,-53145,22520,123,
81876,80,976,-192,-22436,-53045,22620,88,
81912,-48,800,-1136,-22436,-53045,22620,144,
81948,192,1120,416,-22436,-53045,22620,192,
81984,32,928,-832,-21536,-53145,21920,131,
82020,112,1008,-480,-21536,-53145,21920,108,
82056,352,800,-576,-21336,-53045,23120,132,
82092,-48,768,-784,-21336,-53045,23120,136,
82128,384,832,-1056,-21336,-53045,23120,140,
82164,192,688,-1152,-21936,-53145,22920,144,
82200,112,1056,-208,-21936,-53145,22920,93,
82236,160,896,-1280,-21936,-53145,22920,142,
82278,32,608,-1408,-21536,-52345,23520,150,
82314,416,736,-768,-21536,-52345,23520,137,
82350,224,528,-400,-22136,-52945,23920,131,
82386,-128,848,-640,-22136,-52945,23920,121,
82458,128,592,-1536,-21636,-52745,21520,151,
82494,256,912,-688,-21636,-52745,21520,129,
82566,48,976,-960,-21836,-52845,23320,132,
82602,-192,848,-1264,-21836,-52845,23320,148,
82638,-112,944,-1536,-21336,-52745,22720,148,
82674,480,960,-144,-21336,-52745,22720,142,
82710,-160,768,-704,-21336,-52745,22720,136,
82746,288,1024,-768,-21636,-53245,23220,128,
82782,-64,736,-752,-21636,-53245,23220,136,
82818,336,512,-592,-21636,-53245,23220,140,
82854,208,656,-272,-22136,-52745,21220,125,
82890,160,928,-816,-22136,-52745,21220,131,
82926,96,688,-816,-22136,-52745,21220,139,
82962,80,736,-272,-21736,-52745,22520,99,
82998,560,1008,368,-21736,-52745,22520,172,
83076,192,848,-560,-22036,-52445,21620,124,
83112,176,992,192,-22036,-52445,21620,182,
83148,-112,720,-832,-21336,-52845,23820,141,
83184,0,720,-1456,-21336,-52845,23820,149,
83220,-32,784,-960,-21536,-52245,21820,141,
83256,448,784,-848,-21536,-52245,21820,139,
83292,256,720,-752,-21536,-52245,21820,137,
83328,-16,688,-496,-22036,-52945,23620,117,
83370,80,928,-480,-22036,-52945,23620,105,
83406,-64,784,-736,-22036,-52945,23620,131,
83442,-112,608,-800,-21636,-52945,22820,145,
83478,256,816,-560,-21636,-52945,22820,127,
83514,144,768,32,-21836,-53145,23220,153,
83550,304,864,-1040,-21836,-53145,23220,138,
83586,240,544,-864,-21836,-53145,23220,143,
83622,288,912,-688,-21936,-52745,23120,128,
83658,160,912,-416,-21936,-52745,23120,110,
83694,336,592,-1056,-21936,-52745,23120,144,
83730,304,800,272,-22036,-52945,23020,177,
83766,240,624,-688,-22036,-52945,23020,137,
83802,560,944,-48,-21636,-53045,22820,150,
83838,-192,880,-32,-21636,-53045,22820,304,
83880,-80,976,-928,-21636,-53045,22820,133,
83916,0,944,-704,-21836,-52845,21420,123,
83952,144,960,-608,-21836,-52845,21420,120,
83988,272,624,-784,-21836,-52845,21420,141,
84024,-32,624,-1232,-21836,-52845,23020,149,
84096,352,832,240,-21936,-52945,23120,172,
84138,288,1024,-1024,-21936,-52945,23120,134,
84174,0,672,-816,-21936,-52945,23120,140,
84210,256,944,-320,-22036,-53345,23220,118,
84246,48,736,288,-22036,-53345,23220,202,
84282,112,880,-368,-21836,-52545,23120,103,
84318,256,672,-528,-21836,-52545,23120,131,
84354,32,624,-544,-21836,-52545,23120,128,
84390,288,832,-1120,-22036,-53345,22420,141,
84426,64,704,-400,-22036,-53345,22420,112,
84462,-112,528,-1376,-22036,-53345,22420,153,
84498,192,800,-960,-22136,-52745,23620,137,
84534,80,608,-192,-22136,-52745,23620,98,
84570,160,1008,-160,-22136,-52745,23620,108,
84606,288,784,-1008,-22436,-53145,23020,139,
84642,336,864,256,-22436,-53145,23020,174,
84684,0,768,-880,-21736,-52745,22820,138,
84720,272,992,-1056,-21736,-52745,22820,136,
84756,-256,720,-816,-21736,-52745,22820,147,
84792,176,960,-192,-22336,-52345,25320,106,
84828,-16,720,-544,-22336,-52345,25320,116,
84864,-128,704,-1056,-22336,-53145,22920,147,
84900,432,864,-448,-22336,-53145,22920,133,
84936,16,672,-1056,-22336,-53145,22920,145,
84972,16,624,-768,-21936,-52545,23220,139,
85008,48,560,-608,-21936,-52545,23220,135,
85044,320,928,-1184,-21936,-52545,23220,139,
85080,320,688,-992,-21836,-52645,22220,142,
85116,112,672,-624,-21836,-52645,22220,132,
85152,64,864,-768,-21836,-52645,22220,130,
85224,96,944,-240,-21836,-52245,22920,92,
85260,384,800,-656,-21636,-52445,21820,135,
85296,432,816,-128,-21636,-52445,21820,144,
85332,-48,928,-256,-21636,-52445,21820,59,
85368,192,656,-256,-22036,-52745,22920,120,
85404,208,688,416,-22036,-52745,22920,189,
85440,224,672,-608,-22136,-52845,23520,132,
85482,-112,672,-688,-22136,-52845,23520,137,
85518,-48,832,-496,-22136,-52845,23520,104,
85554,-208,624,-864,-21936,-52245,23120,149,
85590,416,1136,160,-21936,-52245,23120,163,
85626,-144,688,-720,-21936,-52245,23120,139,
85662,176,800,-784,-22236,-52145,22820,132,
85734,0,672,-288,-22236,-52445,22920,88,
85770,16,1216,208,-22236,-52445,22920,211,
85842,528,864,-1040,-22036,-52545,23320,139,
85878,336,912,-1472,-22036,-52545,23320,143,
85914,192,1008,-656,-22036,-52545,23320,120,
85950,368,752,-624,-21736,-52445,23020,134,
85986,128,1024,-224,-21736,-52445,23020,97,
86022,-64,736,-160,-21736,-52445,23020,34,
86058,-32,752,-480,-22136,-52145,23220,109,
86094,192,864,-592,-22136,-52145,23220,122,
86130,224,768,-848,-21936,-52245,22520,136,
86166,-160,704,80,-21936,-52245,22520,263,
86202,240,720,-368,-21936,-52245,22520,124,
86238,432,752,-736,-22036,-51845,23420,136,
86280,-16,640,-992,-22036,-51845,23420,144,
86352,176,928,-320,-21936,-52245,23420,107,
86388,160,624,-144,-21936,-52245,23420,118,
86424,64,592,-1536,-22236,-52245,23020,150,
86460,16,656,-176,-22236,-52245,23020,74,
86496,736,1024,-656,-22236,-52245,23020,139,
86532,128,816,-928,-22236,-52845,22720,137,
86568,-112,864,-704,-22236,-52845,22720,126,
86604,208,816,-656,-21836,-52645,24320,127,
86640,176,816,-704,-21836,-52645,24320,128,
86676,512,976,-944,-21836,-52645,24320,135,
86712,304,864,-624,-21836,-53145,22820,129,
86748,64,768,-720,-21836,-53145,22820,131,
86784,256,1120,-368,-21836,-53145,22820,114,
86820,64,1280,400,-22036,-52845,23520,203,
86856,224,752,-784,-22036,-52845,23520,134,
86892,-192,640,-256,-22036,-52845,23520,35,
86928,336,864,-176,-21936,-52745,24320,132,
86964,384,992,-400,-21936,-52745,24320,125,
87000,-128,752,-816,-22136,-52845,23920,138,
87036,144,704,-976,-22136,-52845,23920,140,
87078,0,832,-496,-22136,-52845,23920,106,
87114,432,768,-480,-21936,-52545,23420,134,
87150,464,784,-432,-21936,-52545,23420,135,
87186,-176,800,-688,-22236,-52545,22520,132,
87222,224,752,-1424,-22236,-52545,22520,146,
87258,112,864,-816,-22236,-52545,22520,131,
87294,112,864,-1056,-22136,-52945,23020,138,
87330,144,816,-704,-22136,-52945,23020,129,
87366,400,704,-272,-22136,-52945,23020,137,
87402,304,864,-624,-22036,-53045,20620,132,
87438,128,976,-832,-22036,-53045,20620,131,
87474,0,864,-832,-22036,-53045,20620,134,
87510,-16,688,-816,-21736,-52745,23520,139,
87582,224,592,-1136,-21536,-53045,24120,146,
87618,-224,816,-240,-21536,-53045,24120,355,
87654,144,720,-400,-21536,-53045,24120,115,
87690,176,672,128,-21636,-52545,23420,172,
87726,576,864,-1184,-21636,-52545,23420,141,
87762,128,736,-256,-21636,-52545,23420,105,
87798,96,576,-640,-22036,-52845,22220,137,
87834,-96,752,-144,-22036,-52845,22220,18,
87876,144,816,-960,-21836,-52645,22720,138,
87912,256,736,-1664,-21836,-52645,22720,148,
87948,-224,448,-432,-21836,-52645,22720,153,
87984,384,1088,-1248,-21336,-52445,23220,137,
88020,-144,928,-1136,-21336,-52445,23220,143,
88092,-80,752,-928,-21936,-52445,22120,142,
88128,80,448,-1088,-21936,-52445,22120,150,
88164,320,816,-464,-21936,-52145,22020,129,
88206,0,848,-1488,-21936,-52145,22020,147,
88242,272,816,-1584,-21936,-52145,22020,146,
88278,192,688,-944,-21636,-53245,24320,140,
88314,432,1056,-400,-21636,-53245,24320,127,
88350,-224,656,-896,-21336,-52745,22720,150,
88386,368,896,496,-21336,-52745,22720,183,
88422,160,928,-304,-21336,-52745,22720,106,
88458,0,880,-1024,-21336,-52745,22420,139,
88494,64,832,-928,-21336,-52745,22420,138,
88530,-192,560,-704,-21336,-52745,22420,149,
88602,-48,624,-464,-21136,-52745,22220,122,
88638,352,992,-96,-21636,-52845,22720,139,
88680,-96,848,-736,-21636,-52845,22720,130,
88716,240,1056,-192,-21636,-52845,22720,119,
88752,-128,832,-1024,-21736,-52745,23920,142,
88788,464,960,176,-21736,-52745,23920,163,
88824,176,1232,-560,-21736,-52745,23920,105,
88860,288,960,-976,-21436,-53045,24120,134,
88896,208,1072,-320,-21436,-53045,24120,107,
88932,176,704,-672,-21536,-52645,22220,134,
89004,128,864,-608,-21536,-52645,22220,123,
89040,400,1008,-464,-21736,-52345,22620,128,
89076,-208,800,-1120,-21736,-52345,22620,148,
89112,-16,784,-288,-21736,-52345,22620,78,
89148,0,816,-448,-21736,-53045,23420,102,
89220,336,704,80,-21536,-52645,24320,158,
89256,-16,880,-912,-21536,-52645,24320,134,
89292,464,960,80,-21536,-52645,24320,156,
89328,-80,608,-720,-21036,-53145,23420,142,
89364,-64,1040,-224,-21036,-53145,23420,40,
89400,16,512,-976,-21036,-53145,23420,149,
89436,16,656,-1232,-21536,-53045,23020,148,
89478,272,624,-1312,-21536,-53045,23020,147,
89514,-64,848,-384,-21336,-52645,23220,83,
89550,288,864,-192,-21336,-52645,23220,127,
89586,-352,864,-736,-21336,-52645,23220,147,
89622,448,832,-1760,-21636,-52645,23520,146,
89658,64,656,-384,-21636,-52645,23520,111,
89694,-96,976,-1088,-21636,-52645,23520,138,
89730,112,672,-1264,-22036,-53445,24020,146,
89766,416,704,-608,-22036,-53445,24020,136,
89802,272,400,-1216,-21836,-52745,23120,149,
89838,144,928,64,-21836,-52745,23120,162,
89874,288,624,-928,-21836,-52745,23120,142,
89910,272,1120,-752,-21536,-52845,23520,123,
89946,416,640,-192,-21536,-52845,23520,141,
89982,-160,544,-1248,-21536,-52845,23520,154,
90018,480,800,-1136,-21336,-52845,24120,141,
90054,80,928,-1024,-21336,-52845,24120,136,
90090,-272,608,560,-21636,-52945,23920,212,
90132,16,624,-96,-21636,-52945,23920,65,
90168,160,688,-96,-21636,-52945,23920,122,
90204,192,384,-768,-22036,-52745,23520,145,
90240,112,704,-64,-22036,-52745,23520,118,
90282,320,816,-256,-21436,-53045,22720,129,
90318,640,1008,-320,-21436,-53045,22720,141,
90354,224,560,-416,-21436,-53045,22720,131,
90390,400,1024,704,-21436,-52945,22720,187,
90432,288,864,96,-21436,-52945,22720,161,
90468,80,816,-112,-21436,-52945,22720,95,
90504,-352,336,-1648,-21536,-53145,25620,161,
90540,144,976,208,-21536,-53145,25620,183,
90576,160,640,-384,-22236,-53245,23020,122,
90612,352,736,-944,-22236,-53245,23020,140,
90648,240,624,-640,-22236,-53245,23020,136,
90684,128,848,-64,-22036,-52545,24720,118,
90720,416,1008,-320,-22036,-52545,24720,128,
90756,160,784,-576,-22036,-52545,24720,122,
90792,-16,672,-688,-21736,-53545,23820,135,
90828,160,944,-448,-21736,-53545,23820,110,
90864,-80,784,-1008,-21636,-53245,22920,143,
90900,-64,656,-944,-21636,-53245,22920,146,
90936,240,1040,-48,-21636,-53245,22920,136,
90972,-80,864,-576,-21836,-52945,23620,112,
91008,192,720,-1408,-21836,-52945,23620,146,
91044,80,704,-960,-21836,-52945,23620,141,
91086,-144,880,-208,-22436,-53045,23620,17,
91122,208,704,-576,-22436,-53045,23620,129,
91158,192,800,-704,-21836,-52745,23320,130,
91194,256,848,-928,-21836,-52745,23320,136,
91266,16,336,-176,-21936,-52345,23620,102,
91308,-32,880,-1168,-21936,-52345,23620,142,
91344,336,1024,224,-22136,-53045,23620,171,
91380,-224,560,-1280,-22136,-53045,23620,154,
91416,720,1040,-352,-22136,-53045,23620,142,
91452,-144,720,-736,-22036,-52845,23420,138,
91488,64,928,-1008,-22036,-52845,23420,135,
91524,-192,752,-432,-22036,-52845,23420,102,
91560,-32,544,-912,-22536,-53245,24520,146,
91596,192,832,-1728,-22536,-53245,24520,146,
91632,208,816,-1072,-22536,-53245,24520,138,
91668,-16,352,-192,-22436,-52545,23820,97,
91704,-48,624,-880,-22436,-52545,23820,143,
91776,480,1088,128,-22136,-53145,24620,159,
91812,128,880,-1456,-22136,-53145,24620,144,
91848,464,1216,128,-21936,-52945,23920,159,
91890,-80,752,-208,-21936,-52945,23920,40,
91926,-144,912,-656,-21936,-52745,23620,118,
91962,112,800,-848,-21936,-52745,23620,134,
91998,-96,800,-768,-21936,-52745,23620,133,
92034,32,1088,-432,-21736,-52745,24820,85,
92070,304,864,-192,-21736,-52745,24820,127,
92106,272,720,-176,-21736,-52745,24820,128,
92142,288,912,-1408,-21836,-52845,24620,142,
92178,-96,752,-1232,-21836,-52845,24620,147,
92214,64,720,-672,-21836,-52845,24620,129,
92286,176,1072,-1040,-22036,-52845,24920,130,
92322,384,1056,-240,-21236,-52445,24520,128,
92364,-144,720,-992,-21236,-52445,24520,146,
92400,208,672,-448,-21236,-52445,24520,124,
92436,320,1024,-16,-21636,-53045,25720,142,
92472,112,640,-1872,-21636,-53045,25720,151,
92508,160,880,128,-21836,-53545,23720,173,
92544,304,848,-1104,-21836,-53545,23720,140,
92580,-192,640,-1040,-21836,-53545,23720,151,
92616,192,1168,-112,-21936,-53445,22620,119,
92652,304,816,160,-21936,-53445,22620,168,
92694,64,832,-544,-21936,-53445,22620,117,
92730,576,1104,-320,-21636,-53145,24320,136,
92802,-48,912,-1472,-21836,-52845,25120,146,
92838,0,752,-720,-21836,-52845,25120,130,
92874,464,880,-32,-21836,-52845,25120,147,
92910,-256,896,-624,-22236,-53145,24320,122,
92952,288,576,-144,-22236,-53145,24320,136,
92988,288,976,-640,-22236,-53145,24320,124,
93024,-32,960,-400,-22536,-52545,23520,81,
93060,656,832,-128,-22536,-52545,23520,149,
93096,-16,624,-1280,-22236,-53145,24620,149,
93132,192,720,-128,-22236,-53145,24620,122,
93168,-16,912,-768,-22236,-53145,24620,124,
93204,128,656,-1344,-22136,-52945,23820,147,
93240,80,784,-368,-22136,-52945,23820,103,
93312,-48,640,-464,-21836,-53045,25020,115,
93348,96,544,-800,-21836,-53045,25020,141,
93384,192,1168,64,-21636,-53245,24020,156,
93420,464,1072,-720,-21636,-53245,24020,130,
93456,144,800,-1168,-21636,-53245,24020,142,
93498,592,848,192,-21536,-53745,24120,163,
93534,-256,544,-992,-21536,-53745,24120,156,
93570,448,768,-1248,-21936,-53445,24420,143,
93606,-64,736,-864,-21936,-53445,24420,139,
93642,-48,800,-624,-21936,-53445,24420,121,
93678,448,928,-256,-21736,-53345,23820,135,
93720,32,720,-1504,-21736,-53345,23820,149,
93756,144,928,-1200,-21736,-53345,23820,140,
93792,-32,720,-880,-22136,-53445,23820,140,
93828,288,1040,-224,-22136,-53445,23820,122,
93864,208,864,-432,-21736,-53145,24220,116,
93900,0,896,-1408,-21736,-53145,24220,145,
93936,-224,896,-1280,-21736,-53145,24220,148,
93972,480,1008,128,-22136,-53345,24720,159,
94008,208,816,-624,-22136,-53345,24720,125,
94044,304,912,-688,-22136,-53345,24720,127,
94080,-160,896,-256,-21736,-53645,24320,22,
94116,192,960,-208,-21736,-53645,24320,110,
94152,288,912,-96,-22136,-53545,24220,134,
94188,352,1056,-80,-22136,-53545,24220,138,up
94224,224,960,240,-22136,-53545,24220,179,up
94260,256,912,-480,-22136,-53345,23520,121,up
94338,464,560,-832,-22136,-53345,23520,143,up
94374,208,704,-944,-21936,-53645,23520,140,up
94410,64,528,-992,-21936,-53645,23520,147,up
94446,176,608,-400,-22036,-53345,24620,123,up
94488,368,912,560,-22036,-53345,24620,184,up
94524,128,928,288,-22036,-53345,24620,192,up
94560,96,896,-1456,-21736,-53345,24720,145,up
94596,256,752,-432,-21736,-53345,24720,124,up
94632,368,1008,304,-21736,-53345,24720,174,up
94668,336,1136,128,-21736,-53445,24020,161,up
94704,0,960,-1808,-21736,-53445,24020,148,up
94740,-16,512,-896,-21736,-53245,24120,147,up
94776,-80,640,-1392,-21736,-53245,24120,151,up
94812,160,1088,272,-21736,-53245,24120,188,up
94848,-96,544,-160,-21536,-53245,23120,28,up
94884,352,928,-432,-21536,-53245,23120,127,up
94956,-64,1024,-704,-21736,-53745,24220,114,up
94992,160,704,-416,-21736,-53745,24220,119,up
95028,176,944,-384,-21836,-53745,25220,107,up
95064,416,864,-688,-21836,-53745,25220,132,up
95106,320,944,-224,-21836,-53745,25220,125,up
95142,-128,560,-624,-21736,-53545,24020,142,up
95178,96,624,-1200,-21736,-53545,24020,147,up
95214,592,720,304,-21736,-53545,24020,168,up
95250,432,1072,-976,-21936,-53245,24520,133,up
95292,160,768,-96,-21936,-53245,24520,119,up
95328,224,864,-400,-22036,-53645,24620,116,up
95370,224,480,-784,-22036,-53645,24620,143,up
95406,-160,768,-976,-22036,-53645,24620,144,up
95442,144,176,-1392,-22336,-53545,25220,153,up
95478,272,800,-224,-22336,-53545,25220,123,up
95514,384,848,-1472,-22436,-53145,24520,143,up
95550,560,960,-944,-22436,-53145,24520,136,up
95586,0,624,-1424,-22436,-53145,24520,149,up
95622,0,736,-176,-21936,-53045,24820,61,up
95658,432,672,-1280,-21936,-53045,24820,144,up
95694,368,736,-240,-21936,-53045,24820,133,up
95730,0,608,-1296,-22136,-53345,24720,149,up
95766,-16,608,-1184,-22136,-53345,24720,148,up
95802,-32,624,-768,-22536,-53545,25020,139,up
95838,176,768,-1376,-22536,-53545,25020,144,up
95874,272,624,-1200,-22536,-53545,25020,144,up
95916,-224,576,-416,-22736,-52845,24420,135,up
95952,64,720,-272,-22736,-52845,24420,93,up
95988,-272,912,48,-22736,-52845,24420,274,up
96024,432,1056,-560,-22736,-53845,24320,127,up
96066,-160,768,-784,-22736,-53845,24320,137,up
96102,-432,592,-272,-22936,-53845,24320,218,up
96180,-128,848,-1312,-22936,-53845,24320,146,up
96216,0,944,-528,-22536,-53545,24220,102,up
96252,304,896,-256,-22536,-53545,24220,125,up
96288,16,912,-384,-22736,-53745,24620,87,up
96324,288,832,-576,-22736,-53745,24620,126,up
96360,464,1072,-768,-22736,-53745,24620,130,up
96396,16,736,-1264,-22836,-53545,24420,145,up
96432,112,800,-544,-22836,-53545,24420,118,up
96468,128,896,-192,-22836,-53545,24420,100,up
96504,-48,896,-384,-22736,-53445,24820,78,up
96540,-128,624,-1616,-22736,-53445,24820,152,up
96576,432,896,304,-22736,-53445,24420,172,up
96612,-80,816,-112,-22736,-53445,24420,10,up
96648,-112,672,-656,-22736,-53445,24420,134,up
96684,128,848,-1360,-22736,-53345,24220,143,up
96726,176,208,-1760,-22736,-53345,24220,153,up
96798,416,736,-1376,-22936,-53245,24620,143,up
96834,96,816,-1168,-22936,-53245,24620,141,up
96870,-16,800,-1248,-22736,-53445,25020,144,up
96906,224,752,-848,-22736,-53445,25020,135,up
96942,-176,608,-1488,-22736,-53445,25020,153,up
96978,208,944,-368,-22536,-53245,24420,111,up
97020,-32,688,112,-22536,-53245,24420,227,up
97056,304,1120,-1328,-22436,-53445,25520,136,up
97092,352,720,560,-22436,-53445,25520,185,up
97128,128,688,-1536,-22436,-53445,25520,148,up
97164,304,1008,-208,-22736,-53145,24020,125,up
97206,256,1040,-816,-22736,-53145,24020,126,up
97242,176,672,-240,-22736,-53145,24020,116,up
97278,672,960,-192,-22836,-53245,25520,144,up
97314,192,736,-304,-22836,-53245,25520,114,up
97350,-144,912,-1360,-22636,-53745,24720,146,up
97386,256,768,-144,-22636,-53745,24720,128,up
97422,-96,656,-848,-22636,-53745,24720,142,up
97458,192,960,-368,-22236,-53545,25720,107,up
97500,240,784,-720,-22236,-53545,25720,130,up
97536,304,464,-432,-22236,-53545,25720,136,up
97572,272,640,-352,-22936,-53845,23020,130,up
97608,96,928,544,-22936,-53845,23020,200,up
97644,-336,960,112,-22836,-53445,26020,259,up
97686,64,688,-112,-22836,-53445,26020,87,up
97722,80,960,176,-22836,-53445,26020,193,up
97758,256,768,-720,-22836,-53445,23620,132,up
97800,192,720,-688,-22836,-53445,23620,132,up
97836,320,944,-256,-22736,-52845,24720,124,up
97878,-176,944,-1088,-22736,-52845,24720,139,up
97914,128,448,-752,-22736,-52845,24720,142,up
97950,16,736,-240,-22436,-54045,25620,75,up
97986,256,1008,-240,-22436,-54045,25620,116,up
98022,-272,848,-1120,-22636,-53845,25420,147,up
98058,256,1008,-864,-22636,-53845,25420,127,up
98130,240,1040,-640,-22736,-53445,24320,119,up
98166,0,576,-640,-22736,-53445,24320,135,up
98202,96,880,-480,-22736,-53445,24320,108,up
98238,160,912,-512,-22536,-53645,25420,112,up
98274,256,784,-880,-22536,-53645,25420,135,up
98316,224,1072,-144,-22636,-53245,24520,119,up
98352,-224,416,-144,-22636,-53245,24520,259,up
98388,288,976,-608,-22636,-53245,24520,122,up
98424,144,816,-592,-22736,-53545,25420,120,up
98460,-176,576,16,-22736,-53545,25420,277,up
98496,-192,704,-880,-22736,-53545,25420,144,up
98532,-96,672,-640,-22536,-53445,25020,132,up
98574,80,576,-432,-22536,-53445,25020,121,up
98610,160,928,-672,-22336,-53445,24820,121,up
98646,432,752,-1360,-22336,-53445,24820,143,up
98682,272,896,-640,-22336,-53445,24820,125,up
98718,80,976,-1040,-22336,-52945,26020,132,up
98754,0,848,-832,-22336,-52945,26020,129,up
98790,160,976,256,-22336,-52945,26020,186,up
98826,272,912,-64,-22436,-53645,24920,136,up
98862,400,944,-688,-22436,-53645,24920,129,up
98898,304,1040,-736,-22736,-53045,24320,125,up
98934,592,896,-624,-22736,-53045,24320,136,up
98970,80,656,-768,-22736,-53045,24320,136,up
99006,144,896,-1136,-22736,-53245,25720,137,up
99042,160,832,-848,-22736,-53245,25720,131,up
99078,-16,1040,-288,-22736,-53245,25720,61,up
99120,-16,768,-752,-22836,-52945,25220,129,up
99156,-64,576,-1104,-22836,-52945,25220,148,up
99192,192,768,-352,-22636,-53545,23620,117,up
99234,544,848,-976,-22636,-53545,23620,139,up
99270,112,800,-608,-22636,-53545,23620,123,up
99306,0,608,-224,-22836,-53645,24620,78,up
99342,-192,624,-1104,-22836,-53645,24620,151,up
99378,-240,624,-1040,-22136,-53545,24920,153,up
99456,192,912,-464,-22136,-53545,24920,113,up
99492,-16,736,-912,-22536,-53245,24920,139,up
99528,-64,624,-912,-22536,-53245,24920,144,up
99564,-128,880,224,-22536,-53245,24920,231,up
99600,272,768,-400,-22136,-53545,24120,124,up
99636,160,832,-656,-22136,-53545,24120,125,up
99672,416,672,-720,-21936,-53345,24520,138,up
99708,-96,528,-752,-21936,-53345,24520,146,up
99744,48,384,-976,-21936,-53345,24520,150,up
99780,624,960,-752,-22436,-53645,24120,137,up
99816,80,864,-832,-22436,-53645,24120,131,up
99852,816,1168,-560,-22436,-53645,24120,139,up
99888,-64,800,-1792,-22036,-53445,24920,151,up
99930,112,624,-112,-22036,-53445,24920,108,up
99966,512,816,48,-22536,-53145,24520,155,up
100002,128,464,-1904,-22536,-53145,24520,152,up
100074,-64,912,-1280,-21836,-53045,23020,144,up
100110,192,832,-816,-21836,-53045,23020,133,up
100146,-96,752,-544,-21836,-53045,23020,119,up
100182,384,800,-992,-22036,-52545,22920,139,up
100218,-416,448,-1024,-22036,-52545,22920,162,up
100254,96,560,-1632,-22136,-52445,23920,150,up
100290,96,592,-1152,-22136,-52445,23920,146,up
100326,0,512,-1040,-22136,-52445,23920,148,up
100362,64,832,-96,-22036,-53145,23020,90,up
100398,176,992,-352,-22036,-53145,23020,107,up
100434,144,992,-272,-22036,-53145,23020,101,up
100470,512,976,416,-21636,-52745,21620,176,up
100506,336,864,-480,-21636,-52745,21620,129,up
100542,128,1104,-608,-21436,-53445,23620,110,up
100578,0,688,-928,-21436,-53445,23620,143,up
100614,64,752,-464,-21436,-53445,23620,113,up
100650,-48,416,-960,-21636,-52845,23320,152,up
100692,272,752,-496,-21636,-52845,23320,128,up
100728,-192,832,-880,-21636,-52845,23320,141,up
100764,368,768,-544,-21836,-52845,23120,133,up
100800,160,960,144,-21836,-52845,23120,176,up
100836,-320,800,-1232,-22036,-52945,22120,152,up
100872,80,560,-592,-22036,-52945,22120,135,up
100908,272,608,-480,-22036,-52945,22120,134,up
100944,384,1040,-1024,-21436,-52545,23020,135,up
100980,96,640,-704,-21436,-52545,23020,136,up
101088,64,720,-976,-22036,-52845,23520,141,up
101124,304,992,576,-22136,-52845,24420,188,up
101238,64,752,-720,-22636,-53245,23220,131,up
101274,480,944,-400,-22636,-53245,23220,134,up
101346,352,1024,-1024,-22536,-53145,22820,135,up
101382,144,880,-144,-22536,-53145,22820,110,up
101418,96,864,-128,-22336,-53045,24020,96,up
101460,32,736,-1040,-22336,-53045,24020,142,up
101496,-416,272,-1024,-22336,-53045,24020,165,up
101532,-352,688,-1248,-22336,-53145,23920,155,up
101568,224,816,128,-22336,-53145,23920,168,up
101604,176,816,-1296,-22036,-53145,24120,143,up
101640,-80,928,-48,-22036,-53145,24120,340,up
101712,448,800,-1232,-22236,-53145,23220,142,up
101754,224,848,-1344,-22236,-53145,23220,143,up
101790,208,768,-352,-22236,-53145,23220,119,up
101826,-208,368,-1040,-22036,-53345,24220,157,up
101862,-80,816,-384,-22036,-53345,24220,82,up
101898,208,768,-1024,-22336,-53445,22320,141,up
101934,-304,592,-992,-22336,-53445,22320,155,up
101970,-96,992,320,-22336,-53445,22320,221,up
102006,-96,960,-592,-21836,-52845,22920,108,up
102042,176,624,-1248,-21836,-52845,22920,147,up
102078,304,1056,-912,-21836,-52845,22920,131,up
102114,-160,576,-1472,-22136,-53145,24420,154,up
102150,-368,656,-800,-22136,-53145,24420,157,up
102186,112,816,-1552,-22136,-52845,23420,147,up
102228,-48,608,-1312,-22136,-52845,23420,150,up
102264,352,848,64,-22136,-52845,23420,156,up
102300,240,1024,-208,-22336,-53445,24620,116,up
102342,16,704,-128,-22336,-53445,24620,65,up
102378,272,848,-1088,-21836,-53145,22920,140,up
102414,320,992,-784,-21836,-53145,22920,130,up
102450,0,832,-832,-21836,-53145,22920,134,up
102486,-32,320,-208,-22036,-53445,24120,110,up
102522,-192,720,-352,-22036,-53445,24120,77,up
102558,-176,304,-608,-22036,-53445,24120,157,up
102630,-64,672,-1376,-21936,-52845,24020,150,up
102666,-112,672,-944,-21836,-53045,23820,146,up
102702,-336,736,-896,-21836,-53045,23820,153,up
102738,496,816,-896,-21836,-53045,23820,138,up
102774,224,880,-432,-21636,-53445,24020,117,up
102810,-288,672,-656,-21636,-53445,24020,150,up
102846,256,704,-576,-21636,-53445,24020,131,up
102882,128,704,-1104,-22036,-53345,23520,144,up
102918,96,768,-1632,-22036,-53345,23520,148,up
102954,96,816,-1744,-21736,-52945,24920,148,up
102996,400,736,-608,-21736,-52945,24920,134,up
103032,-112,672,-464,-21736,-52945,24920,113,up
103068,160,944,-48,-21836,-53545,23520,128,up
103110,48,896,-912,-21836,-53545,23520,134,up
103146,-32,672,-320,-21836,-53545,23520,90,up
103182,784,1088,-320,-22436,-53745,23820,144,up
103224,112,1088,208,-22436,-53745,23820,191,up
103260,224,720,-592,-22236,-53145,23520,130,up
103302,160,800,368,-22236,-53145,23520,192,up
103338,112,496,-1680,-22236,-53145,23520,152,up
103374,64,592,-1104,-22136,-53545,24020,147,up
103410,0,1056,-336,-22136,-53545,24020,73,up
103446,96,896,-432,-21836,-53645,22620,107,up
103482,0,848,-528,-21836,-53645,22620,112,up
103554,-176,688,-64,-22136,-53745,23820,312,up
103590,-128,944,-1056,-22136,-53745,23820,139,up
103626,464,1056,384,-22136,-53745,23820,175,up
103662,16,656,48,-22136,-53445,23020,202,up
103698,448,832,-544,-22136,-53445,23020,135,up
103734,352,560,-1616,-22036,-53745,23820,149,up
103776,0,640,-128,-22036,-53745,23820,59,up
103812,304,976,-1024,-22036,-53745,23820,135,up
103848,400,1184,-656,-22136,-53445,23820,124,up
103884,192,816,256,-22136,-53445,23820,183,up
103920,-160,768,-768,-22136,-53445,23820,138,up
103956,240,656,-1216,-22236,-53545,22920,145,up
103998,416,912,-736,-22236,-53545,22920,134,up
104034,560,896,-560,-22736,-53745,24220,136,up
104076,224,1088,-272,-22736,-53745,24220,110,up
104112,-176,560,-1248,-22736,-53745,24220,153,up
104148,0,848,-1376,-21936,-53345,23320,146,up
104184,400,1120,336,-21936,-53345,23320,175,up
104220,256,960,-432,-21936,-53645,23720,118,up
104256,352,592,-1104,-21936,-53645,23720,145,up
104292,96,1136,-368,-21936,-53645,23720,91,up
104328,368,1136,-224,-21336,-53045,22220,129,up
104364,592,1008,-320,-21336,-53045,22220,140,up
104400,128,1056,-448,-21336,-53045,22220,105,up
104436,0,1040,-416,-21936,-53445,24020,83,up
104472,336,896,-144,-21936,-53445,24020,134,up
104508,-352,640,-976,-21936,-53745,23120,157,up
104550,272,912,-192,-21936,-53745,23120,125,up
104586,128,1040,384,-21936,-53745,23120,196,up
104622,480,1056,-1408,-21736,-53945,24620,140,up
104658,336,1088,-576,-21736,-53945,24620,121,up
104694,48,752,16,-21736,-53945,24620,152,up
104730,304,848,-16,-22036,-54045,21820,148,up
104772,-32,544,-96,-22036,-54045,21820,38,up
104808,592,1184,288,-22036,-53145,23720,167,up
104850,384,992,560,-22036,-53145,23720,184,up
104886,-48,624,-720,-22036,-53145,23720,139,up
104922,144,976,-848,-22336,-53645,23620,128,up
104958,16,800,-1296,-22336,-53645,23620,145,up
104994,-80,880,-192,-22236,-53545,23020,34,up
105030,176,464,-912,-22236,-53545,23020,146,up
105066,-176,576,-496,-22236,-53545,23020,137,up
105102,112,800,-1648,-22236,-53445,24520,147,up
105138,112,736,-1056,-22236,-53445,24520,141,up
105174,64,880,-1104,-22236,-53445,24520,139,up
105210,-32,1008,-1280,-21336,-53645,23620,142,up
105246,224,752,-912,-21336,-53645,23620,139,up
105282,272,1056,-160,-22336,-53945,22720,126,up
105324,-352,384,-1984,-22336,-53945,22720,159,up
105396,-96,624,-944,-22036,-53445,23220,147,up
105432,384,960,-176,-22036,-53445,23220,135,up
105468,368,832,-1008,-22036,-53445,23220,139,up
105504,144,768,-800,-22136,-53645,23520,134,up
105546,-96,640,-1040,-22136,-53645,23520,148,up
105582,-32,592,-1408,-21836,-53745,24020,152,up
105618,352,944,-432,-21836,-53745,24020,125,up
105654,128,608,-336,-21836,-53745,24020,116,up
105690,192,784,-736,-21836,-53345,23120,132,up
105726,48,720,-896,-21836,-53345,23120,140,up
105762,272,880,-400,-21736,-53745,23420,122,up
105798,-96,912,-368,-21736,-53745,23420,70,up
105834,-32,688,-720,-21736,-53745,23420,136,up
105906,400,976,-688,-21836,-53745,22820,131,up
105942,112,784,-368,-21836,-53745,22820,109,up
105978,-48,976,-672,-22136,-52945,23220,115,up
106014,224,800,-2048,-22136,-52945,23220,149,up
106050,-80,784,-784,-22136,-52945,23220,134,up
106092,0,432,-976,-22036,-53045,23820,150,up
106128,400,1024,-480,-22036,-53045,23820,126,up
106164,144,720,-368,-21836,-53245,23520,114,up
106200,64,928,-144,-21836,-53245,23520,83,up
106236,80,960,192,-21836,-53245,23520,195,up
106272,-48,704,-864,-21536,-52945,24220,141,up
106308,304,928,-464,-21536,-52945,24220,122,up
106344,368,960,-1040,-21836,-53945,23020,137,up
106386,224,896,-704,-21836,-53945,23020,128,up
106422,416,736,-1040,-21836,-53945,23020,142,up
106458,-16,624,-1584,-21736,-53645,22520,152,up
106494,416,912,-1680,-21736,-53645,22520,146,up
106530,32,752,-640,-21736,-53645,22520,129,up
106566,-320,704,-1760,-22336,-53045,23320,155,up
106602,0,896,-480,-22336,-53045,23320,101,up
106638,-160,1008,-1072,-21736,-53345,24720,138,up
106674,112,896,368,-21736,-53345,24720,195,up
106710,304,832,-752,-21736,-53345,24720,132,up
106746,192,640,-480,-21836,-53745,23620,128,up
106782,-192,1008,16,-21836,-53745,23620,290,up
106818,-224,592,-48,-21836,-53745,23620,285,up
106860,-336,864,-704,-21736,-53945,23420,144,up
106932,400,928,-544,-21636,-53345,23220,130,up
106974,-160,672,-1632,-21636,-53345,23220,154,up
107010,32,624,-368,-21636,-53345,23220,110,up
107046,-192,864,-352,-21436,-53345,25320,43,up
107088,-160,400,-688,-21436,-53345,25320,154,up
107124,16,704,-1168,-21336,-53845,24520,147,up
107160,384,1008,160,-21336,-53845,24520,163,up
107196,208,1008,-576,-21336,-53845,24520,116,up
107232,-144,608,-256,-21936,-52945,23620,55,up
107268,32,864,-768,-21936,-52945,23620,128,up
107304,-192,736,-960,-21936,-52945,23620,146,up
107340,272,736,32,-21736,-53645,23920,152,up
107376,64,560,-672,-21736,-53645,23920,138,up
107412,160,864,-352,-21936,-53645,23820,109,up
107448,96,1040,-896,-21936,-53645,23820,127,up
107484,288,928,-1136,-21936,-53645,23820,138,up
107520,128,848,-624,-22036,-53645,24420,122,up
107556,0,864,-528,-22036,-53645,24420,107,up
107592,192,1088,-96,-22036,-53645,24420,120,up
107628,208,640,-624,-22436,-53745,23020,134,up
107670,736,1248,-160,-22436,-53745,23020,147,up
107706,192,960,-992,-22436,-53645,24920,133,up
107742,-64,864,-544,-22436,-53645,24920,106,up
107778,48,800,-448,-22436,-53645,24920,105,up
107814,-48,928,-1392,-21936,-53945,23520,146,up
107850,0,528,-912,-21936,-53945,23520,147,up
107886,368,976,624,-21936,-53945,23520,186,up
107958,32,832,-224,-22236,-53945,24620,76,up
107994,16,688,-432,-22136,-53545,23220,112,up
108030,16,832,-656,-22136,-53545,23220,124,up
108066,16,896,-112,-22136,-53545,23220,62,up
108102,176,576,-848,-22036,-53645,25320,141,up
108138,-80,752,-912,-22036,-53645,25320,140,up
108174,240,848,-288,-22036,-53645,25320,116,up
108210,80,608,-1120,-22036,-53745,25620,146,up
108246,656,1104,-32,-22036,-53745,25620,149,up
108282,336,912,-720,-22536,-53745,23020,131,up
108318,-32,832,-592,-22536,-53745,23020,118,up
108354,-16,1024,448,-22536,-53745,23020,209,up
108390,-48,912,240,-22136,-53545,23220,219,up
108432,576,1056,816,-22136,-53545,23220,184,up
108468,160,768,-416,-22136,-53545,23220,117,up
108504,0,608,-1040,-21736,-53445,23720,147,up
108540,96,960,-928,-21736,-53445,23720,132,up
108576,96,624,-1008,-22236,-53645,23220,144,up
108612,0,704,-912,-22236,-53645,23220,141,up
108648,-16,560,-368,-22236,-53645,23220,113,up
108684,48,560,-832,-22136,-53545,23020,144,up
108726,208,784,-752,-22136,-53545,23020,133,up
108762,192,944,-400,-21836,-53645,22220,114,up
108804,-16,704,-544,-21836,-53645,22220,124,up
108840,256,672,-336,-21836,-53645,22220,128,up
108876,48,768,-1376,-22636,-53445,23020,146,up
108912,-16,496,-784,-22636,-53445,23020,145,up
108948,464,1072,-240,-22636,-53445,23020,136,up
108984,304,1216,-496,-21936,-53245,22620,117,up
109020,144,816,288,-21936,-53245,22620,191,up
109056,64,704,-1200,-21836,-53245,25020,145,up
109092,-96,592,-800,-21836,-53245,25020,144,up
109128,-64,752,-496,-21836,-53245,25020,109,up
109164,-80,752,-688,-22336,-53945,23420,131,up
109200,80,816,-576,-22336,-53945,23420,120,up
109242,-96,752,-256,-22336,-53945,23420,53,up
109278,496,1024,240,-21536,-53845,23320,167,up
109320,288,928,-464,-21536,-53845,23320,123,up
109356,32,976,-496,-21636,-53445,23620,100,up
109392,640,1296,368,-21636,-53445,23620,169,up
109428,144,576,-560,-21636,-53445,23620,133,up
109464,-240,608,-400,-22336,-53245,22720,136,up
109506,480,688,-1024,-22336,-53245,22720,143,up
109542,144,896,-752,-21436,-53345,23820,127,up
109584,176,800,-640,-21436,-53345,23820,127,up
109620,0,640,-656,-21436,-53345,23820,135,up
109656,176,768,-1072,-22136,-53445,22920,141,up
109692,128,704,-848,-22136,-53445,22920,138,up
109728,544,880,-672,-21736,-53345,22020,138,up
109800,224,768,-384,-21736,-53345,22020,123,up
109836,256,736,-848,-21836,-53445,23820,137,up
109872,368,880,-288,-21836,-53445,23820,130,up
109908,96,976,-1056,-21836,-53445,23820,135,up
109944,-48,896,-608,-21936,-53845,23920,114,up
109980,-176,768,-1088,-21936,-53845,23920,148,up
110022,192,1008,-160,-22036,-53545,23720,114,up
110064,-336,1056,128,-22036,-53545,23720,259,up
110100,-96,720,-1088,-22036,-53545,23720,147,up
110136,352,960,-624,-21736,-53745,24420,127,up
110214,80,608,-1136,-21736,-54445,22920,148,up
110250,-48,656,-96,-21736,-54445,22920,23,up
110286,-320,640,-1776,-21736,-54445,22920,157,up
110322,-16,1136,-544,-22136,-54245,22120,97,up
110358,384,1120,-352,-22136,-54245,22120,127,up
110394,-192,800,-528,-22136,-54245,22120,121,up
110430,144,768,-1136,-22136,-54045,22120,144,up
110466,320,992,-1072,-22136,-54045,22120,137,up
110502,0,736,-1232,-22036,-54145,23420,147,up
110538,-48,656,-496,-22036,-54145,23420,122,up
110574,176,800,-704,-22036,-54145,23420,130,up
110610,384,944,-448,-22036,-54045,23320,128,up
110646,-16,928,-400,-22036,-54045,23320,87,up
110682,-128,592,-1744,-22036,-54045,23320,154,up
110718,-64,848,48,-22236,-54045,23620,267,up
110754,32,432,-1312,-22236,-54045,23620,152,up
110796,368,912,-1376,-22036,-53945,23420,143,up
110832,16,640,-848,-22036,-53945,23420,142,up
110868,64,752,144,-22036,-53945,23420,194,up
110904,-48,752,-752,-21536,-53945,23320,136,up
110940,240,960,-1264,-21536,-53945,23320,141,up
110976,272,480,-816,-21536,-53945,23320,144,up
111012,256,1040,-544,-21636,-53645,23220,119,up
111054,48,1184,-48,-21636,-53645,23220,93,up
111090,-160,544,-496,-21636,-54245,22120,141,up
111126,288,832,-1104,-21636,-54245,22120,142,up
111162,112,720,-640,-21636,-54245,22120,132,up
111198,144,640,-544,-21636,-53445,25020,127,up
111234,448,1040,-368,-21636,-53445,25020,128,up
111270,-112,848,-736,-21636,-53445,25020,128,up
111306,64,480,-1696,-22036,-54045,23220,153,up
111342,-160,912,-1056,-22036,-54045,23220,142,up
111378,-64,592,-112,-21336,-53845,23420,20,up
111414,-64,880,-1776,-21336,-53845,23420,151,up
111450,128,976,-176,-21336,-53845,23420,100,up
111486,-112,848,-496,-21636,-54545,23720,104,up
111528,592,736,-240,-21636,-54545,23720,145,up
111564,224,896,-768,-21636,-54545,23720,131,up
111600,416,1088,-1808,-21636,-54045,24220,144,up
111636,-16,496,-2048,-21636,-54045,24220,155,up
111672,48,976,-912,-21936,-53845,23120,131,up
111714,-144,608,-1312,-21936,-53845,23120,153,up
111750,-176,768,-432,-21936,-53845,23120,102,up
111786,-240,976,-1024,-21836,-54445,24120,142,up
111828,304,816,-64,-21836,-54445,24120,140,up
111864,-384,640,-896,-21936,-53545,25020,159,up
111900,176,656,-1424,-21936,-53545,25020,147,up
111936,-16,864,480,-21936,-53545,25020,205,up
111972,-80,880,0,-21836,-53945,24420,304,up
112008,-176,672,-528,-21836,-53945,24420,130,up
112044,176,1040,-1424,-21836,-53945,24420,141,up
112080,320,944,-1728,-22136,-53945,24020,145,up
112116,480,800,-624,-22136,-53945,24020,136,up
112152,48,720,-1072,-21936,-53945,23920,144,up
112188,144,656,-1072,-21936,-53945,23920,144,up
112224,48,576,-1168,-21936,-53945,23920,149,up
112260,224,768,-1248,-22036,-53945,23120,144,up
112302,224,544,-1280,-22036,-53945,23120,148,up
112338,-48,784,-1392,-22036,-53945,23120,148,up
112374,160,880,-832,-22436,-54145,24120,131,up
112410,240,848,-416,-22436,-54145,24120,120,up
112446,320,1136,-80,-22136,-54245,23620,136,up
112488,608,944,32,-22136,-54245,23620,155,up
112524,32,736,-784,-22136,-54245,23620,136,up
112560,272,496,-1408,-21836,-53845,22920,150,up
112596,192,800,-928,-21836,-53845,22920,138,up
112632,32,640,-624,-21636,-54245,23620,133,up
112674,-16,624,-560,-21636,-54245,23620,130,up
112710,128,800,-416,-21636,-54245,23620,112,up
112746,32,1008,-528,-21936,-54345,24220,102,up
112782,-96,656,-1152,-21936,-54345,24220,150,up
112818,16,656,-736,-21936,-54345,24220,137,up
112854,-144,912,-240,-21936,-54245,23820,24,up
112890,64,528,-256,-21936,-54245,23820,107,up
112926,96,992,-560,-22236,-54245,22920,112,up
112962,16,656,-256,-22236,-54245,22920,89,up
112998,-32,608,-704,-22236,-54245,22920,140,up
113034,112,800,-928,-22036,-54445,22520,139,up
113076,80,656,-80,-22036,-54445,22520,105,up
113112,16,608,-272,-22036,-54445,22520,97,up
113148,144,992,-480,-21836,-54145,23620,109,up
113184,192,992,-528,-21836,-54145,23620,115,up
113220,368,768,32,-21436,-54845,23520,154,up
113262,64,800,-448,-21436,-54845,23520,110,up
113298,-112,560,-1280,-21436,-54845,23520,154,up
113334,-48,768,-704,-21936,-54345,23320,132,up
113376,-176,704,-416,-21936,-54345,23320,110,up
113412,-80,656,-928,-22136,-54445,23620,146,up
113448,432,816,-1024,-22136,-54445,23620,140,up
113484,224,976,-160,-22136,-54445,23620,120,up
113520,240,960,-32,-21936,-54345,24320,139,up
113556,176,784,-320,-21936,-54345,24320,113,up
113592,256,896,-432,-21936,-54345,24320,120,up
113628,48,848,-32,-21936,-54545,23720,105,up
113664,48,672,-1712,-21936,-54545,23720,151,up
113700,96,960,-1280,-22036,-54245,24620,141,up
113736,96,800,224,-22036,-54245,24620,192,up
113772,-64,832,-288,-22036,-54245,24620,60,up
113808,112,832,-1056,-21636,-53845,24420,140,up
113850,-224,704,-224,-21636,-53845,24420,345,up
113886,192,1168,-512,-21636,-53845,24420,107,up
113922,352,656,-736,-21536,-54345,22820,140,up
113958,592,848,992,-21536,-54345,22820,186,up
113994,64,720,-1008,-22336,-53945,23520,142,up
114030,-16,672,-1312,-22336,-53945,23520,149,up
114066,64,784,-864,-22336,-53945,23520,136,up
114102,16,816,-1312,-22436,-54045,23620,145,up
114144,176,1104,-816,-22436,-54045,23620,123,up
114180,16,544,-1248,-22036,-53745,23220,150,up
114216,-16,624,-592,-22036,-53745,23220,132,up
114252,224,736,-256,-22036,-53745,23220,121,up
114288,32,720,-384,-22136,-54045,22420,107,up
114324,112,720,80,-22136,-54045,22420,172,up
114360,336,1104,144,-22136,-54045,22420,165,up
114396,336,784,-704,-22036,-54145,22420,135,up
114432,-96,912,-640,-22036,-54145,22420,119,up
114468,432,976,-512,-22036,-54145,22420,132,up
114504,128,736,-992,-22136,-54145,24020,141,up
114540,-16,800,-48,-22136,-54145,24020,26,up
114576,-112,896,-656,-22236,-53645,23120,120,up
114612,96,880,-112,-22236,-53645,23120,100,up
114654,-128,816,-1488,-22236,-53645,23120,150,up
114690,128,1120,-672,-22136,-53745,23820,113,up
114726,80,832,-672,-22136,-53745,23820,125,up
114762,192,880,-384,-22236,-53745,23820,113,up
114798,288,1120,-528,-22236,-53745,23820,117,up
114834,336,944,-576,-22236,-53745,23820,126,up
114870,48,480,-368,-22336,-54045,23420,123,up
114906,320,928,0,-22336,-54045,23420,148,up
114942,384,720,-1152,-22336,-54045,23420,143,up
114978,272,1200,-128,-22436,-54245,23620,126,up
115020,-192,688,-1328,-22436,-54245,23620,152,up
115056,-80,912,48,-22436,-54245,22320,274,up
115098,16,944,-992,-22436,-54245,22320,136,up
115134,496,1200,-784,-22436,-54245,22320,131,up
115170,16,560,-1168,-22036,-54445,22620,150,up
115206,-32,624,-688,-22036,-54445,22620,139,up
115242,144,880,-1248,-22036,-54445,22620,143,up
115278,256,800,-400,-22036,-54145,23220,124,up
115314,160,896,-128,-22036,-54145,23220,114,up
115350,64,816,-144,-21936,-54145,23420,86,up
115386,368,752,-864,-21936,-54145,23420,139,up
115428,320,832,-240,-21936,-54145,23420,129,up
115464,-128,624,-1120,-21536,-53945,22820,151,up
115500,-256,560,-1040,-21536,-53945,22820,156,up
115536,256,928,0,-21736,-54445,23020,146,up
115572,288,784,-224,-21736,-54445,23020,129,up
115608,192,752,-768,-21736,-54445,23020,136,up
115644,16,544,-1488,-21736,-53845,23220,152,up
115680,-32,1024,-400,-21736,-53845,23220,79,up
115716,-32,496,-1392,-21736,-53845,23220,153,up
115752,-96,560,-1328,-22236,-54145,24420,152,up
115788,32,1072,-672,-22236,-54145,24420,111,up
115824,224,720,-816,-21836,-53645,23320,137,up
115860,-144,768,-896,-21836,-53645,23320,143,up
115896,160,880,-640,-21836,-53645,23320,124,up
115932,128,1008,112,-22236,-54445,21920,177,up
115968,0,576,-1136,-22236,-54445,21920,150,up
116004,-16,944,-544,-22236,-54445,21920,109,up
116040,80,816,-48,-21736,-53445,24020,111,up
116076,-16,912,-304,-21736,-53445,24020,71,up
116112,80,832,-816,-21736,-53445,24020,132,up
116148,176,800,-1040,-21936,-54045,24120,140,up
116190,224,768,-432,-21936,-54045,24120,122,up
116226,-64,608,-1568,-22136,-53445,24420,152,up
116262,-16,960,-704,-22136,-53445,24420,118,up
116298,-256,576,-800,-22136,-53445,24420,153,up
116334,352,992,-592,-21736,-53545,23820,126,up
116376,-64,688,-608,-21736,-53545,23820,130,up
116412,224,800,-752,-21936,-54245,23020,134,up
116454,96,736,-1104,-21936,-54245,23020,144,up
116490,272,704,-464,-21936,-54245,23020,130,up
116526,-176,496,-368,-22036,-54045,22720,137,up
116562,336,960,-352,-22036,-54045,22720,126,up
116598,-224,672,-1184,-21836,-54245,23320,153,up
116634,64,864,-1056,-21836,-54245,23320,140,up
116670,64,656,-960,-21836,-54245,23320,144,up
116706,0,672,-736,-22336,-54545,23220,137,up
116742,-368,512,-1248,-22336,-54545,23220,159,up
116778,192,736,-1616,-22336,-54545,23220,148,up
